PacketCounter,SampleTimeFine,Euler_X,Euler_Y,Euler_Z,Acc_X,Acc_Y,Acc_Z,Gyr_X,Gyr_Y,Gyr_Z
30,1985661619,-18.56974220275879,-4.60252237319946,-47.64916992187500,0.81258815526962,-3.05526399612427,9.10846805572510,-0.52916449308395,-2.25551271438599,-0.16311144828796
31,1985669952,-18.56789588928223,-4.60291385650635,-47.64866256713867,0.80321115255356,-3.07076668739319,9.06282711029053,-0.31108486652374,-2.31324696540833,-0.15868017077446
32,1985678285,-18.56530380249023,-4.60318899154663,-47.64722442626953,0.81019967794418,-3.06185555458069,9.09570598602295,-0.22630175948143,-2.34078240394592,-0.00128071161453
33,1985686618,-18.56238937377930,-4.60244703292847,-47.64727783203125,0.79174435138702,-3.04308438301086,9.10346317291260,-0.18857198953629,-2.16179013252258,-0.18017053604126
34,1985694951,-18.56034469604492,-4.60195159912109,-47.64641571044922,0.78818994760513,-3.04105424880981,9.11169147491455,-0.30762696266174,-2.18771195411682,-0.16349567472935
35,1985703284,-18.55950355529785,-4.60271215438843,-47.64624786376953,0.77404528856277,-3.04743504524231,9.14157295227051,-0.43562132120132,-2.34075689315796,-0.21249571442604
36,1985711617,-18.56056785583496,-4.60255146026611,-47.64642715454102,0.78167396783829,-3.04290056228638,9.12576007843018,-0.68600040674210,-2.21422243118286,-0.21713188290596
37,1985719950,-18.56208038330078,-4.60270833969116,-47.64534759521484,0.77475118637085,-3.03955483436584,9.10101509094238,-0.70777249336243,-2.30858540534973,-0.08480872958899
38,1985728283,-18.56457519531250,-4.60345411300659,-47.64502334594727,0.79313951730728,-3.03630495071411,9.11860179901123,-0.85267233848572,-2.33578801155090,-0.18798287212849
39,1985736616,-18.56635284423828,-4.60303497314453,-47.64550399780273,0.79030370712280,-3.05438590049744,9.11248588562012,-0.75569671392441,-2.18325471878052,-0.24049203097820
40,1985744949,-18.56662559509277,-4.60255670547485,-47.64487838745117,0.79503512382507,-3.06390094757080,9.07964801788330,-0.58459377288818,-2.20080065727234,-0.13257928192616
41,1985753282,-18.56543159484863,-4.60151576995850,-47.64462280273438,0.79897308349609,-3.05242419242859,9.11864566802979,-0.39200028777122,-2.14129900932312,-0.13117049634457
42,1985761615,-18.56411361694336,-4.60175991058350,-47.64320755004883,0.79738938808441,-3.06280136108398,9.09429359436035,-0.38224124908447,-2.32305741310120,-0.04351858794689
43,1985769948,-18.56201744079590,-4.60167360305786,-47.64287185668945,0.80341279506683,-3.05364441871643,9.11991310119629,-0.28554749488831,-2.25095343589783,-0.16108790040016
44,1985778281,-18.55947494506836,-4.60159683227539,-47.64242553710938,0.80709826946259,-3.04655718803406,9.09379959106445,-0.24451346695423,-2.24749565124512,-0.13957196474075
45,1985786614,-18.55682182312012,-4.60078668594360,-47.64170837402344,0.81421178579330,-3.04382348060608,9.10963344573975,-0.21477535367012,-2.18456101417542,-0.09059754014015
46,1985794947,-18.55565643310547,-4.60077905654907,-47.64053726196289,0.80464464426041,-3.03619289398193,9.13213920593262,-0.40242525935173,-2.28435444831848,-0.06055205687881
47,1985803280,-18.55732345581055,-4.60095357894897,-47.64078140258789,0.80018067359924,-3.03696012496948,9.11984825134277,-0.74099421501160,-2.26017451286316,-0.23549729585648
48,1985811613,-18.55961608886719,-4.60051822662354,-47.64041519165039,0.77341222763062,-3.04655981063843,9.11255931854248,-0.82877409458160,-2.19347500801086,-0.16874657571316
49,1985819946,-18.56093597412109,-4.60084486007690,-47.64052963256836,0.78857433795929,-3.07359576225281,9.10862731933594,-0.69783419370651,-2.28097295761108,-0.22650666534901
50,1985828279,-18.56238746643066,-4.60030984878540,-47.63985443115234,0.79545050859451,-3.05077576637268,9.09191989898682,-0.72521585226059,-2.19488382339478,-0.13265612721443
51,1985836612,-18.56373786926270,-4.59913587570190,-47.63914871215820,0.80287659168243,-3.07234263420105,9.10253143310547,-0.69258332252502,-2.14191365242004,-0.07597181200981
52,1985844945,-18.56334877014160,-4.59958124160767,-47.63895797729492,0.80367016792297,-3.05084085464478,9.07193946838379,-0.50324290990829,-2.31504058837891,-0.12796872854233
53,1985853278,-18.56227302551270,-4.59917259216309,-47.63873672485352,0.79884135723114,-3.05526018142700,9.11162853240967,-0.40677964687347,-2.21245527267456,-0.16231741011143
54,1985861611,-18.56016159057617,-4.60002851486206,-47.63788986206055,0.80008798837662,-3.05008912086487,9.08205890655518,-0.28882613778114,-2.38048458099365,-0.09467022120953
55,1985869944,-18.55748367309570,-4.59906005859375,-47.63728332519531,0.79257482290268,-3.03239393234253,9.12158775329590,-0.21165041625500,-2.16140580177307,-0.09584845602512
56,1985878277,-18.55585479736328,-4.59991455078125,-47.63582992553711,0.80659693479538,-3.02547621726990,9.11600589752197,-0.34527987241745,-2.39690327644348,-0.05104917287827
57,1985886610,-18.55506515502930,-4.59944581985474,-47.63477325439453,0.78868371248245,-3.03779792785645,9.09058475494385,-0.43382823467255,-2.23540544509888,-0.06518822908401
58,1985894943,-18.55570602416992,-4.59918880462646,-47.63496398925781,0.79739773273468,-3.03581857681274,9.13946342468262,-0.62967473268509,-2.21783423423767,-0.16900274157524
59,1985903276,-18.55971145629883,-4.59912919998169,-47.63430786132812,0.82094866037369,-3.03728103637695,9.12793064117432,-1.01209521293640,-2.26739764213562,-0.12438271939754
60,1985911609,-18.56277465820312,-4.59839105606079,-47.63423156738281,0.77861505746841,-3.06866765022278,9.11099338531494,-0.92177951335907,-2.15674424171448,-0.16631324589252
61,1985919942,-18.56526756286621,-4.59729957580566,-47.63431930541992,0.77958810329437,-3.05969333648682,9.09448242187500,-0.83853316307068,-2.12185764312744,-0.17046272754669
62,1985928275,-18.56642913818359,-4.59805250167847,-47.63393783569336,0.79860687255859,-3.05601453781128,9.08212852478027,-0.69107210636139,-2.33834910392761,-0.18283440172672
63,1985936608,-18.56527519226074,-4.59862613677979,-47.63358306884766,0.80456787347794,-3.07313585281372,9.10817813873291,-0.39648270606995,-2.32856440544128,-0.18211722373962
64,1985944941,-18.56202125549316,-4.59917688369751,-47.63224029541016,0.79569798707962,-3.06319069862366,9.09921932220459,-0.16055001318455,-2.31772947311401,-0.17169220745564
65,1985953274,-18.55905151367188,-4.60006523132324,-47.63124465942383,0.79508483409882,-3.04869723320007,9.14492416381836,-0.17192274332047,-2.38765645027161,-0.12182130664587
66,1985961607,-18.55581474304199,-4.60120058059692,-47.63301086425781,0.80613315105438,-3.05533862113953,9.11871623992920,-0.16231741011143,-2.38837361335754,-0.18531897664070
67,1985969940,-18.55477905273438,-4.60104322433472,-47.63277435302734,0.81756526231766,-3.02459168434143,9.13530540466309,-0.41069865226746,-2.24098944664001,-0.16825990378857
68,1985978273,-18.55553054809570,-4.60017108917236,-47.63301086425781,0.77257591485977,-3.04154968261719,9.10309982299805,-0.64522260427475,-2.14191341400146,-0.15878263115883
69,1985986606,-18.55757331848145,-4.60082626342773,-47.63321685791016,0.82210189104080,-3.04261684417725,9.07965660095215,-0.78558856248856,-2.31591105461121,-0.24989247322083
70,1985994939,-18.55945777893066,-4.60086059570312,-47.63350296020508,0.80903565883636,-3.04534816741943,9.12637519836426,-0.78348827362061,-2.23960638046265,-0.20809005200863
71,1986003272,-18.56168556213379,-4.60119390487671,-47.63324356079102,0.79308211803436,-3.05725884437561,9.09312343597412,-0.80113637447357,-2.29754543304443,-0.18537022173405
72,1986011605,-18.56258201599121,-4.60031938552856,-47.63276290893555,0.81173813343048,-3.05247426033020,9.08826923370361,-0.66184622049332,-2.14524364471436,-0.14282497763634
73,1986019938,-18.56250381469727,-4.59971666336060,-47.63306045532227,0.80260992050171,-3.07947707176208,9.07354450225830,-0.53095746040344,-2.16965365409851,-0.21234200894833
74,1986028271,-18.56110382080078,-4.60036516189575,-47.63233947753906,0.81968796253204,-3.04857611656189,9.07046890258789,-0.37934681773186,-2.33906626701355,-0.14151862263680
75,1986036604,-18.55827140808105,-4.60069179534912,-47.63196182250977,0.80228966474533,-3.04911756515503,9.11458873748779,-0.19459132850170,-2.30041432380676,-0.17079569399357
76,1986044937,-18.55503082275391,-4.60072231292725,-47.63182830810547,0.80145573616028,-3.06191706657410,9.10308361053467,-0.15960229933262,-2.27008724212646,-0.12499748170376
77,1986053270,-18.55120468139648,-4.60034608840942,-47.63138198852539,0.82548749446869,-3.04667139053345,9.12785911560059,-0.07448619604111,-2.22323870658875,-0.13731791079044
78,1986061603,-18.55151748657227,-4.60139846801758,-47.63001251220703,0.81133884191513,-3.04732418060303,9.10436153411865,-0.58241647481918,-2.40212869644165,-0.11142192780972
79,1986069936,-18.55473709106445,-4.60098457336426,-47.63047790527344,0.78893512487411,-3.03918743133545,9.11429786682129,-0.92818313837051,-2.18520140647888,-0.23828923702240
80,1986078269,-18.55909347534180,-4.60136127471924,-47.63007354736328,0.81356942653656,-3.07597398757935,9.10418701171875,-1.07756519317627,-2.27912902832031,-0.22033363580704
81,1986086602,-18.56382942199707,-4.60035657882690,-47.63044357299805,0.79153603315353,-3.07483935356140,9.07818412780762,-1.11073577404022,-2.12009024620056,-0.20417109131813
82,1986094935,-18.56546783447266,-4.60056877136230,-47.63051223754883,0.79935699701309,-3.05517148971558,9.07779312133789,-0.75377571582794,-2.25387334823608,-0.23411412537098
83,1986103268,-18.56292533874512,-4.60070133209229,-47.63010787963867,0.79944127798080,-3.06498074531555,9.09597492218018,-0.22965724766254,-2.28005099296570,-0.16126722097397
84,1986111601,-18.55746459960938,-4.60027790069580,-47.62911987304688,0.81652206182480,-3.05799698829651,9.07310295104980,0.11048699915409,-2.23092293739319,-0.06360013782978
85,1986119934,-18.55247688293457,-4.60080432891846,-47.62830352783203,0.79600971937180,-3.04046893119812,9.12455177307129,0.06853088736534,-2.33865666389465,-0.12947995960712
86,1986128267,-18.54946899414062,-4.60028743743896,-47.62885665893555,0.79824090003967,-3.03131914138794,9.14726734161377,-0.18931479752064,-2.20164585113525,-0.11434194445610
87,1986136600,-18.55020904541016,-4.60014295578003,-47.62852859497070,0.79341369867325,-3.04250621795654,9.10478591918945,-0.62265640497208,-2.24508762359619,-0.15911562740803
88,1986144933,-18.55389595031738,-4.59931087493896,-47.62880325317383,0.79255998134613,-3.04745578765869,9.10092163085938,-1.00407803058624,-2.11904001235962,-0.24564050137997
89,1986153266,-18.55911636352539,-4.59849262237549,-47.62909698486328,0.80165970325470,-3.04995131492615,9.12511539459229,-1.16701018810272,-2.14529466629028,-0.20271107554436
90,1986161599,-18.56227302551270,-4.59796428680420,-47.62974166870117,0.80727535486221,-3.04144334793091,9.07042598724365,-0.94186103343964,-2.14742040634155,-0.27023017406464
91,1986169932,-18.56270599365234,-4.59704160690308,-47.62952041625977,0.80390667915344,-3.06965637207031,9.07692527770996,-0.58882009983063,-2.15300464630127,-0.14118567109108
92,1986178265,-18.55991554260254,-4.59698343276978,-47.62853622436523,0.77718889713287,-3.06095552444458,9.12891769409180,-0.21149672567844,-2.26657795906067,-0.09377370029688
93,1986186598,-18.55744743347168,-4.59792089462280,-47.62793350219727,0.81301897764206,-3.03894948959351,9.12947845458984,-0.23413974046707,-2.37940907478333,-0.16808061301708
94,1986194931,-18.55494689941406,-4.59769678115845,-47.62733840942383,0.79615026712418,-3.04615545272827,9.11555767059326,-0.24743352830410,-2.24734163284302,-0.09497758001089
95,1986203264,-18.55464935302734,-4.59823226928711,-47.62725830078125,0.79538899660110,-3.03208971023560,9.13712692260742,-0.50278186798096,-2.31214594841003,-0.21162480115891
96,1986211597,-18.55479621887207,-4.59799146652222,-47.62697982788086,0.79269301891327,-3.03781056404114,9.12062835693359,-0.56789320707321,-2.22774672508240,-0.14210776984692
97,1986219930,-18.55604362487793,-4.59810972213745,-47.62718200683594,0.80924481153488,-3.03766918182373,9.08040523529053,-0.68938153982162,-2.25546145439148,-0.22968283295631
98,1986228263,-18.55731391906738,-4.59689617156982,-47.62682342529297,0.80241531133652,-3.05581355094910,9.09557819366455,-0.70977038145065,-2.09186339378357,-0.17796769738197
99,1986236596,-18.55819320678711,-4.59689092636108,-47.62627410888672,0.79700613021851,-3.06308102607727,9.11856079101562,-0.63766640424728,-2.26855015754700,-0.13905967772007
100,1986244929,-18.55780792236328,-4.59719848632812,-47.62598037719727,0.80069375038147,-3.04321575164795,9.11535453796387,-0.50477975606918,-2.28929805755615,-0.16144652664661
101,1986253262,-18.55916404724121,-4.59696292877197,-47.62506866455078,0.79161822795868,-3.05973553657532,9.10870170593262,-0.69160997867584,-2.25715184211731,-0.08772875368595
102,1986261595,-18.56004524230957,-4.59720659255981,-47.62481307983398,0.78479421138763,-3.06402850151062,9.11349868774414,-0.65546828508377,-2.28601932525635,-0.14635975658894
103,1986269928,-18.55904960632324,-4.59686613082886,-47.62409591674805,0.82145959138870,-3.04790163040161,9.11336517333984,-0.41241478919983,-2.23765945434570,-0.10704188793898
104,1986278261,-18.55734443664551,-4.59698200225830,-47.62217712402344,0.78760945796967,-3.05545496940613,9.10068035125732,-0.34241104125977,-2.27728486061096,-0.12617571651936
105,1986286594,-18.55441093444824,-4.59719944000244,-47.62197875976562,0.79896771907806,-3.05245876312256,9.11760807037354,-0.18444810807705,-2.28035855293274,-0.18831585347652
106,1986294927,-18.55230331420898,-4.59766483306885,-47.62084579467773,0.81222856044769,-3.05953073501587,9.14854812622070,-0.29968652129173,-2.30412840843201,-0.18370528519154
107,1986303260,-18.55243301391602,-4.59726381301880,-47.62070846557617,0.80317151546478,-3.04358530044556,9.15498828887939,-0.55188429355621,-2.20807504653931,-0.16946376860142
108,1986311593,-18.55518913269043,-4.59806203842163,-47.62059020996094,0.80262959003448,-3.04767632484436,9.14370250701904,-0.88310205936432,-2.33973240852356,-0.20022648572922
109,1986319926,-18.55914306640625,-4.59773778915405,-47.62055969238281,0.80647879838943,-3.05729126930237,9.10884571075439,-1.01178789138794,-2.21291637420654,-0.18603619933128
110,1986328259,-18.56204605102539,-4.59815740585327,-47.61995697021484,0.80140262842178,-3.04965972900391,9.10084152221680,-0.90013545751572,-2.29874968528748,-0.17755790054798
111,1986336592,-18.56238174438477,-4.59886312484741,-47.61923599243164,0.81052255630493,-3.05089068412781,9.11216640472412,-0.57199150323868,-2.35704779624939,-0.14653904736042
112,1986344925,-18.55980300903320,-4.59929323196411,-47.61947631835938,0.80396169424057,-3.05678796768188,9.09457206726074,-0.24223381280899,-2.29372882843018,-0.19738328456879
113,1986353258,-18.55619049072266,-4.59922981262207,-47.61880493164062,0.82763046026230,-3.04669523239136,9.11149787902832,-0.09884533286095,-2.26588654518127,-0.12533044815063
114,1986361591,-18.55273628234863,-4.59985780715942,-47.61766052246094,0.81653517484665,-3.04295706748962,9.08790302276611,-0.12886521220207,-2.35284662246704,-0.09748777002096
115,1986369924,-18.55162811279297,-4.59896039962769,-47.61751556396484,0.79569035768509,-3.03271532058716,9.12807273864746,-0.40365472435951,-2.15192866325378,-0.15150819718838
116,1986378257,-18.55231666564941,-4.59877347946167,-47.61724472045898,0.77100926637650,-3.04639697074890,9.11151885986328,-0.62767678499222,-2.25210595130920,-0.08829226344824
117,1986386590,-18.55472755432129,-4.59837388992310,-47.61762619018555,0.79704052209854,-3.02324604988098,9.12104225158691,-0.83097702264786,-2.18899250030518,-0.22932426631451
118,1986394923,-18.55690956115723,-4.59768009185791,-47.61695861816406,0.80681437253952,-3.06931638717651,9.11470413208008,-0.81317508220673,-2.17469954490662,-0.13311716914177
119,1986403256,-18.55817031860352,-4.59825706481934,-47.61624145507812,0.81312149763107,-3.06272220611572,9.11765575408936,-0.68151801824570,-2.34280610084534,-0.14267130196095
120,1986411589,-18.55769157409668,-4.59807252883911,-47.61463928222656,0.80843555927277,-3.05412364006042,9.07994747161865,-0.49233120679855,-2.23527741432190,-0.14820395410061
121,1986419922,-18.55831336975098,-4.59742784500122,-47.61448669433594,0.78410518169403,-3.03820157051086,9.08556461334229,-0.61215466260910,-2.18128275871277,-0.15847526490688
122,1986428255,-18.55854606628418,-4.59773397445679,-47.61384582519531,0.78797447681427,-3.05729222297668,9.10809707641602,-0.57744735479355,-2.29677724838257,-0.14579623937607
123,1986436588,-18.55753898620605,-4.59719657897949,-47.61330795288086,0.78817158937454,-3.04209303855896,9.11280918121338,-0.41223549842834,-2.20822906494141,-0.12007953226566
124,1986444921,-18.55496978759766,-4.59713125228882,-47.61267471313477,0.78985375165939,-3.02285790443420,9.11940383911133,-0.24087625741959,-2.25161933898926,-0.13416735827923
125,1986453254,-18.55283546447754,-4.59774637222290,-47.61116790771484,0.79343456029892,-3.05115222930908,9.12291336059570,-0.26707962155342,-2.37648892402649,-0.05517306551337
126,1986461587,-18.55004310607910,-4.59832715988159,-47.61031723022461,0.80063849687576,-3.05034995079041,9.11435985565186,-0.20983180403709,-2.33763194084167,-0.12356305867434
127,1986469920,-18.54944801330566,-4.59897041320801,-47.61004638671875,0.80290007591248,-3.03902983665466,9.12786960601807,-0.46602535247803,-2.33291912078857,-0.19528292119503
128,1986478253,-18.55082893371582,-4.59847497940063,-47.60923004150391,0.80726069211960,-3.05164647102356,9.11520290374756,-0.71148663759232,-2.20984268188477,-0.09064877778292
129,1986486586,-18.55469703674316,-4.59802341461182,-47.60900115966797,0.81004977226257,-3.04899621009827,9.13722896575928,-1.00015914440155,-2.20730662345886,-0.15770687162876
130,1986494919,-18.55922508239746,-4.59705352783203,-47.60958099365234,0.79830241203308,-3.04884910583496,9.11888027191162,-1.09544396400452,-2.13469052314758,-0.13970005512238
131,1986503252,-18.56222724914551,-4.59688186645508,-47.60950851440430,0.78994292020798,-3.06361937522888,9.10837745666504,-0.89716422557831,-2.23307466506958,-0.18480670452118
132,1986511585,-18.56265830993652,-4.59685468673706,-47.60992813110352,0.80574244260788,-3.05643200874329,9.07032012939453,-0.61031031608582,-2.21803903579712,-0.24922651052475
133,1986519918,-18.55952262878418,-4.59712505340576,-47.60943984985352,0.79939782619476,-3.06472873687744,9.08432483673096,-0.15750192105770,-2.29882645606995,-0.15596507489681
134,1986528251,-18.55463600158691,-4.59756660461426,-47.60872650146484,0.81327986717224,-3.02721953392029,9.13831615447998,0.03746081888676,-2.31191539764404,-0.14510464668274
135,1986536584,-18.55064201354980,-4.59802770614624,-47.60734558105469,0.78337097167969,-3.04695153236389,9.12835502624512,-0.04441507905722,-2.35461401939392,-0.06126924604177
136,1986544917,-18.54927444458008,-4.59878206253052,-47.60692977905273,0.78590309619904,-3.02780055999756,9.13858413696289,-0.38618585467339,-2.34216594696045,-0.17548312246799
137,1986553250,-18.55071258544922,-4.59798622131348,-47.60663223266602,0.78816980123520,-3.04477620124817,9.13168907165527,-0.70674788951874,-2.17037105560303,-0.13588351011276
138,1986561583,-18.55357360839844,-4.59680795669556,-47.60617446899414,0.79856669902802,-3.03918600082397,9.10571479797363,-0.89452588558197,-2.11845088005066,-0.11462370306253
139,1986569916,-18.55739784240723,-4.59622287750244,-47.60599136352539,0.79603892564774,-3.05780482292175,9.08453845977783,-0.99664980173111,-2.18932533264160,-0.15860332548618
140,1986578249,-18.55929374694824,-4.59542369842529,-47.60559463500977,0.78070938587189,-3.05365371704102,9.05974769592285,-0.77969723939896,-2.14941859245300,-0.15970475971699
141,1986586582,-18.56000137329102,-4.59573459625244,-47.60548782348633,0.81374365091324,-3.03331184387207,9.11434650421143,-0.62293821573257,-2.28855514526367,-0.19935560226440
142,1986594915,-18.55912971496582,-4.59568786621094,-47.60388946533203,0.80695456266403,-3.04069709777832,9.13596248626709,-0.44059047102928,-2.26947259902954,-0.09233932197094
143,1986603248,-18.55775833129883,-4.59641265869141,-47.60276794433594,0.80052465200424,-3.06223917007446,9.13053989410400,-0.36249262094498,-2.37484931945801,-0.10350712388754
144,1986611581,-18.55731391906738,-4.59596681594849,-47.60034561157227,0.81924796104431,-3.06093955039978,9.08411502838135,-0.48912942409515,-2.23471379280090,-0.04193050041795
145,1986619914,-18.55696487426758,-4.59666061401367,-47.59938812255859,0.80446279048920,-3.04469704627991,9.10122680664062,-0.48679858446121,-2.36557722091675,-0.11941356956959
146,1986628247,-18.55531501770020,-4.59711074829102,-47.59907913208008,0.79444319009781,-3.05269908905029,9.10481452941895,-0.35255429148674,-2.30246353149414,-0.17637963593006
147,1986636580,-18.55455017089844,-4.59809875488281,-47.59849929809570,0.81170409917831,-3.03980565071106,9.11918258666992,-0.44123077392578,-2.38407039642334,-0.17238380014896
148,1986644913,-18.55379295349121,-4.59760475158691,-47.59843826293945,0.79527306556702,-3.05501580238342,9.13296794891357,-0.45836675167084,-2.20561599731445,-0.11490544676781
149,1986653246,-18.55525016784668,-4.59670972824097,-47.59809875488281,0.78648132085800,-3.05887103080750,9.10840988159180,-0.70846414566040,-2.16127777099609,-0.12878836691380
150,1986661579,-18.55777359008789,-4.59752035140991,-47.59741210937500,0.79421514272690,-3.07722520828247,9.10210990905762,-0.84911197423935,-2.36119699478149,-0.14046847820282
151,1986669912,-18.56125831604004,-4.59679222106934,-47.59712982177734,0.78247487545013,-3.06110644340515,9.09421253204346,-0.95310574769974,-2.17618560791016,-0.14034040272236
152,1986678245,-18.56383705139160,-4.59640550613403,-47.59640884399414,0.80963218212128,-3.06553292274475,9.09973907470703,-0.86061263084412,-2.20448899269104,-0.15860332548618
153,1986686578,-18.56354904174805,-4.59624242782593,-47.59595489501953,0.80331921577454,-3.04067134857178,9.08763313293457,-0.49993863701820,-2.24698305130005,-0.14405444264412
154,1986694911,-18.56119155883789,-4.59485292434692,-47.59615707397461,0.80128616094589,-3.05649042129517,9.10789394378662,-0.26987156271935,-2.08589529991150,-0.13757404685020
155,1986703244,-18.55827713012695,-4.59512901306152,-47.59523391723633,0.78747206926346,-3.05523324012756,9.11097431182861,-0.18004246056080,-2.31432294845581,-0.10670889914036
156,1986711577,-18.55572700500488,-4.59525156021118,-47.59401702880859,0.78795635700226,-3.03897523880005,9.10839271545410,-0.23762324452400,-2.29208946228027,-0.09036701917648
157,1986719910,-18.55578041076660,-4.59551715850830,-47.59311294555664,0.79672300815582,-3.04042077064514,9.12733364105225,-0.53546559810638,-2.31332397460938,-0.10988508164883
158,1986728243,-18.55665588378906,-4.59599256515503,-47.59236907958984,0.78365594148636,-3.02195501327515,9.09567642211914,-0.65078091621399,-2.32692503929138,-0.11562266945839
159,1986736576,-18.55837249755859,-4.59604597091675,-47.59160614013672,0.79690039157867,-3.04050445556641,9.07701301574707,-0.73617875576019,-2.28435444831848,-0.11726196855307
160,1986744909,-18.55881309509277,-4.59669733047485,-47.59247207641602,0.79156017303467,-3.06130146980286,9.12563037872314,-0.60411179065704,-2.32077789306641,-0.20757776498795
161,1986753242,-18.55821418762207,-4.59611225128174,-47.59228897094727,0.80562013387680,-3.04783201217651,9.10317230224609,-0.46533378958702,-2.18850564956665,-0.15706647932529
162,1986761575,-18.55694198608398,-4.59560012817383,-47.59312057495117,0.79898434877396,-3.04257893562317,9.08631896972656,-0.39935153722763,-2.18768620491028,-0.15696403384209
163,1986769908,-18.55622673034668,-4.59480857849121,-47.59246444702148,0.79530268907547,-3.04248213768005,9.09100151062012,-0.44630247354507,-2.18305015563965,-0.09436285495758
164,1986778241,-18.55704689025879,-4.59491825103760,-47.59158325195312,0.80900150537491,-3.05437159538269,9.12882518768311,-0.64558118581772,-2.27674698829651,-0.13088873028755
165,1986786574,-18.55799484252930,-4.59497356414795,-47.59197235107422,0.78973597288132,-3.04169535636902,9.09060478210449,-0.65452057123184,-2.24011850357056,-0.24763840436935
166,1986794907,-18.55949592590332,-4.59476184844971,-47.59139251708984,0.81017398834229,-3.06512975692749,9.09633922576904,-0.72757226228714,-2.24493408203125,-0.10512081533670
167,1986803240,-18.55836868286133,-4.59453868865967,-47.59050369262695,0.78880012035370,-3.04506683349609,9.10022258758545,-0.39358833432198,-2.25758743286133,-0.09259545058012
168,1986811573,-18.55648612976074,-4.59489536285400,-47.58929061889648,0.80634200572968,-3.05626726150513,9.13738441467285,-0.32445555925369,-2.29895472526550,-0.15389034152031
169,1986819906,-18.55465316772461,-4.59521102905273,-47.58880233764648,0.79218232631683,-3.05472850799561,9.15562152862549,-0.31310838460922,-2.30312943458557,-0.15850089490414
170,1986828239,-18.55455017089844,-4.59536600112915,-47.58937454223633,0.80600887537003,-3.04105997085571,9.13323688507080,-0.54606992006302,-2.23453474044800,-0.26485118269920
171,1986836572,-18.55639457702637,-4.59594583511353,-47.58916091918945,0.81412404775620,-3.05836534500122,9.13811397552490,-0.75715684890747,-2.32277584075928,-0.20068754255772
172,1986844905,-18.55888175964355,-4.59531354904175,-47.58771896362305,0.79679572582245,-3.05293679237366,9.07654571533203,-0.84424519538879,-2.19703531265259,-0.08496241271496
173,1986853238,-18.56005859375000,-4.59538507461548,-47.58708953857422,0.80860328674316,-3.05248808860779,9.09294891357422,-0.67350065708160,-2.28215146064758,-0.13170839846134
174,1986861571,-18.55942344665527,-4.59632635116577,-47.58687973022461,0.79427635669708,-3.05244660377502,9.08110904693604,-0.47501602768898,-2.35843086242676,-0.19254219532013
175,1986869904,-18.55817031860352,-4.59593725204468,-47.58633041381836,0.80523759126663,-3.06032180786133,9.13292121887207,-0.38224118947983,-2.22633790969849,-0.12433149665594
176,1986878237,-18.55643081665039,-4.59563970565796,-47.58533096313477,0.79715037345886,-3.03978514671326,9.10987186431885,-0.34072056412697,-2.22331571578979,-0.13670317828655
177,1986886570,-18.55573844909668,-4.59534645080566,-47.58514404296875,0.80066692829132,-3.05094528198242,9.10492610931396,-0.45139962434769,-2.22249579429626,-0.16849042475224
178,1986894903,-18.55678749084473,-4.59511470794678,-47.58654785156250,0.79850703477859,-3.05748105049133,9.12199878692627,-0.68272179365158,-2.20039081573486,-0.22020557522774
179,1986903236,-18.55919265747070,-4.59540033340454,-47.58636093139648,0.82293909788132,-3.04760384559631,9.13259029388428,-0.82434302568436,-2.28970813751221,-0.18934044241905
180,1986911569,-18.56010437011719,-4.59527301788330,-47.58606338500977,0.79023575782776,-3.04794716835022,9.07581043243408,-0.65621101856232,-2.25425744056702,-0.10601731389761
181,1986919902,-18.55938720703125,-4.59579277038574,-47.58535385131836,0.79669177532196,-3.05292582511902,9.10806846618652,-0.44648176431656,-2.33571100234985,-0.14036600291729
182,1986928235,-18.55713844299316,-4.59611415863037,-47.58510208129883,0.80994176864624,-3.05878329277039,9.09768581390381,-0.27991235256195,-2.28978443145752,-0.16395670175552
183,1986936568,-18.55436897277832,-4.59645271301270,-47.58544540405273,0.79266232252121,-3.04845070838928,9.09664630889893,-0.20739845931530,-2.27533793449402,-0.25345286726952
184,1986944901,-18.55348587036133,-4.59653997421265,-47.58577728271484,0.79179012775421,-3.03949475288391,9.11078453063965,-0.44532907009125,-2.25131201744080,-0.19023691117764
185,1986953234,-18.55519676208496,-4.59596872329712,-47.58628845214844,0.79024976491928,-3.02318239212036,9.09916782379150,-0.74962621927261,-2.16458225250244,-0.23675237596035
186,1986961567,-18.55863571166992,-4.59508800506592,-47.58762359619141,0.79456746578217,-3.04920315742493,9.08918952941895,-0.96619462966919,-2.14140152931213,-0.15914125740528
187,1986969900,-18.56113433837891,-4.59377717971802,-47.58745193481445,0.81079840660095,-3.05454802513123,9.13232517242432,-0.83666336536407,-2.10630965232849,-0.13155470788479
188,1986978233,-18.56146812438965,-4.59421396255493,-47.58724975585938,0.79309839010239,-3.06968951225281,9.07711982727051,-0.58946043252945,-2.30612659454346,-0.16285531222820
189,1986986566,-18.55934906005859,-4.59496402740479,-47.58601379394531,0.80041772127151,-3.06174564361572,9.11193466186523,-0.27176702022552,-2.37984418869019,-0.09103299677372
190,1986994899,-18.55666732788086,-4.59541082382202,-47.58579254150391,0.80345427989960,-3.05173110961914,9.09910774230957,-0.21556939184666,-2.35230875015259,-0.02645950391889
191,1987003232,-18.55504417419434,-4.59527015686035,-47.58495712280273,0.79231595993042,-3.04700756072998,9.10582065582275,-0.33644291758537,-2.26452875137329,-0.10317413508892
192,1987011565,-18.55589294433594,-4.59474706649780,-47.58550643920898,0.80226045846939,-3.05318832397461,9.13541221618652,-0.65049904584885,-2.19583129882812,-0.12589395046234
193,1987019898,-18.55848884582520,-4.59385251998901,-47.58568191528320,0.80609440803528,-3.06242942810059,9.12472152709961,-0.85046947002411,-2.14152932167053,-0.18900744616985
194,1987028231,-18.56108283996582,-4.59301280975342,-47.58605957031250,0.79044657945633,-3.06822323799133,9.13154220581055,-0.86862993240356,-2.12703180313110,-0.21139430999756
195,1987036564,-18.56105613708496,-4.59329652786255,-47.58586883544922,0.79575705528259,-3.06599044799805,9.09876823425293,-0.53387749195099,-2.29032230377197,-0.18967340886593
196,1987044897,-18.55768394470215,-4.59363269805908,-47.58563613891602,0.78859508037567,-3.05373287200928,9.12952804565430,-0.14425937831402,-2.28799152374268,-0.17571365833282
197,1987053230,-18.55555152893066,-4.59399271011353,-47.58509063720703,0.79951363801956,-3.02919578552246,9.11028671264648,-0.27778634428978,-2.31040382385254,-0.15435138344765
198,1987061563,-18.55416870117188,-4.59422969818115,-47.58506774902344,0.78452807664871,-3.05216407775879,9.08983230590820,-0.37952607870102,-2.29872369766235,-0.10862996429205
199,1987069896,-18.55495834350586,-4.59385490417480,-47.58539581298828,0.80165374279022,-3.04188299179077,9.10950946807861,-0.63630878925323,-2.19311642646790,-0.22481612861156
200,1987078229,-18.55770301818848,-4.59354591369629,-47.58647155761719,0.80135881900787,-3.05916428565979,9.10109043121338,-0.88561213016510,-2.19242477416992,-0.22174242138863
201,1987086562,-18.56170082092285,-4.59305000305176,-47.58681106567383,0.80937951803207,-3.05182719230652,9.09422492980957,-1.02198231220245,-2.17954063415527,-0.22181926667690
202,1987094895,-18.56264686584473,-4.59298801422119,-47.58573913574219,0.81787842512131,-3.05924963951111,9.08824443817139,-0.66020697355270,-2.25466728210449,-0.12730275094509
203,1987103228,-18.56073951721191,-4.59314203262329,-47.58465194702148,0.80443787574768,-3.05540180206299,9.11980915069580,-0.29850828647614,-2.30804729461670,-0.08319503068924
204,1987111561,-18.55642890930176,-4.59246683120728,-47.58369445800781,0.80622923374176,-3.04744911193848,9.10902500152588,-0.02548616379499,-2.20302939414978,-0.04856459051371
205,1987119894,-18.55294799804688,-4.59264755249023,-47.58248519897461,0.78041023015976,-3.03183245658875,9.14418220520020,-0.10837383568287,-2.31488656997681,-0.07054160535336
206,1987128227,-18.55221557617188,-4.59263467788696,-47.58199310302734,0.79130458831787,-3.03768563270569,9.13235378265381,-0.46259307861328,-2.24557423591614,-0.17417678236961
207,1987136560,-18.55480766296387,-4.59261751174927,-47.58140563964844,0.81329530477524,-3.04894781112671,9.10818576812744,-0.84370726346970,-2.26942133903503,-0.13467964529991
208,1987144893,-18.55883407592773,-4.59310054779053,-47.58128738403320,0.78923082351685,-3.04358315467834,9.08195495605469,-1.03594207763672,-2.30256581306458,-0.18990392982960
209,1987153226,-18.56217002868652,-4.59280252456665,-47.58133316040039,0.79424530267715,-3.05321574211121,9.09344196319580,-0.93799328804016,-2.21358227729797,-0.19530855119228
210,1987161559,-18.56244087219238,-4.59178543090820,-47.58264923095703,0.81499701738358,-3.05157184600830,9.10602760314941,-0.58182734251022,-2.13440847396851,-0.12607325613499
211,1987169892,-18.56048202514648,-4.59083175659180,-47.58239746093750,0.78997707366943,-3.05656695365906,9.07763957977295,-0.30265781283379,-2.14954662322998,-0.13670316338539
212,1987178225,-18.55699157714844,-4.59228563308716,-47.58136749267578,0.79753726720810,-3.04846096038818,9.11438083648682,-0.12335816770792,-2.44428968429565,-0.13257928192616
213,1987186558,-18.55397415161133,-4.59290122985840,-47.58044433593750,0.78982144594193,-3.04746603965759,9.10714817047119,-0.16723534464836,-2.35502386093140,-0.11943916976452
214,1987194891,-18.55292129516602,-4.59252262115479,-47.58004760742188,0.80049622058868,-3.04252409934998,9.11857891082764,-0.41843411326408,-2.22280311584473,-0.10230324417353
215,1987203224,-18.55393409729004,-4.59274196624756,-47.57966995239258,0.78998839855194,-3.04634475708008,9.11523056030273,-0.65582680702209,-2.28819632530212,-0.16533988714218
216,1987211557,-18.55576896667480,-4.59236240386963,-47.58086776733398,0.80047172307968,-3.05514454841614,9.10875511169434,-0.77857023477554,-2.18107771873474,-0.22899124026299
217,1987219890,-18.55763626098633,-4.59161663055420,-47.58168411254883,0.77663779258728,-3.05546379089355,9.10664176940918,-0.76906734704971,-2.13276934623718,-0.26620873808861
218,1987228223,-18.55829811096191,-4.59066677093506,-47.58169937133789,0.79956585168839,-3.06031894683838,9.07318305969238,-0.63218498229980,-2.13702130317688,-0.14884431660175
219,1987236556,-18.55788230895996,-4.58966970443726,-47.58137512207031,0.80138838291168,-3.04297566413879,9.09665870666504,-0.48541536927223,-2.14683127403259,-0.12714906036854
220,1987244889,-18.55641937255859,-4.58994197845459,-47.58236694335938,0.77646917104721,-3.05477929115295,9.08290863037109,-0.37634992599487,-2.27113747596741,-0.20004716515541
221,1987253222,-18.55580711364746,-4.59042692184448,-47.58185958862305,0.80926632881165,-3.05789351463318,9.14896392822266,-0.45998042821884,-2.32413315773010,-0.16329075396061
222,1987261555,-18.55419921875000,-4.58985376358032,-47.58151626586914,0.80462008714676,-3.04238510131836,9.10431098937988,-0.35485962033272,-2.19181013107300,-0.12325568497181
223,1987269888,-18.55387878417969,-4.58963155746460,-47.58121109008789,0.79072630405426,-3.03588199615479,9.12690258026123,-0.49809437990189,-2.23430418968201,-0.15732263028622
224,1987278221,-18.55421638488770,-4.58984184265137,-47.58074951171875,0.80027121305466,-3.05218696594238,9.10323810577393,-0.58674520254135,-2.28699231147766,-0.13652385771275
225,1987286554,-18.55492973327637,-4.59021234512329,-47.58055114746094,0.81122189760208,-3.05769824981689,9.08369731903076,-0.62196493148804,-2.29862189292908,-0.19269590079784
226,1987294887,-18.55583190917969,-4.59071636199951,-47.58010101318359,0.78602010011673,-3.07192039489746,9.09241676330566,-0.65498167276382,-2.31542444229126,-0.15670789778233
227,1987303220,-18.55657958984375,-4.59002923965454,-47.58045196533203,0.79670715332031,-3.07770872116089,9.11428642272949,-0.63157016038895,-2.15794801712036,-0.21428868174553
228,1987311553,-18.55586624145508,-4.59112119674683,-47.57973480224609,0.81584584712982,-3.05847120285034,9.07945632934570,-0.46282365918159,-2.37981843948364,-0.19026254117489
229,1987319886,-18.55404090881348,-4.58965158462524,-47.57959365844727,0.78803169727325,-3.06113123893738,9.14235305786133,-0.31925582885742,-2.08709931373596,-0.12999226152897
230,1987328219,-18.55228996276855,-4.58934736251831,-47.58039093017578,0.81241667270660,-3.04344844818115,9.11380672454834,-0.34192442893982,-2.20187640190125,-0.19159448146820
231,1987336552,-18.55135726928711,-4.59030055999756,-47.58007431030273,0.80331915616989,-3.04345774650574,9.09355545043945,-0.42358264327049,-2.36872768402100,-0.20248053967953
232,1987344885,-18.55255889892578,-4.59054899215698,-47.57855606079102,0.78717714548111,-3.03715777397156,9.11295700073242,-0.68302917480469,-2.32372331619263,-0.03980452194810
233,1987353218,-18.55417060852051,-4.59081172943115,-47.57823944091797,0.80150181055069,-3.06955814361572,9.12656211853027,-0.72831511497498,-2.28986120223999,-0.17571364343166
234,1987361551,-18.55552101135254,-4.59051322937012,-47.57812881469727,0.81741821765900,-3.04566025733948,9.11340141296387,-0.71276724338531,-2.21360778808594,-0.15624682605267
235,1987369884,-18.55683135986328,-4.59066581726074,-47.57836532592773,0.79597604274750,-3.03730177879333,9.10209465026855,-0.69714266061783,-2.25753641128540,-0.23419097065926
236,1987378217,-18.55791091918945,-4.59113073348999,-47.57849121093750,0.80000436306000,-3.07343983650208,9.08391761779785,-0.68218380212784,-2.29403638839722,-0.20919144153595
237,1987386550,-18.55805015563965,-4.59166049957275,-47.57857131958008,0.80555981397629,-3.06093955039978,9.10252285003662,-0.55664855241776,-2.30507636070251,-0.23188567161560
238,1987394883,-18.55610275268555,-4.59247064590454,-47.57947158813477,0.79767525196075,-3.05232381820679,9.10897445678711,-0.31741163134575,-2.33335423469543,-0.22325366735458
239,1987403216,-18.55377006530762,-4.59243679046631,-47.57858657836914,0.81166666746140,-3.04929304122925,9.12514400482178,-0.25107073783875,-2.27787399291992,-0.10107377171516
240,1987411549,-18.55154228210449,-4.59238672256470,-47.57911300659180,0.80872613191605,-3.07114768028259,9.10965156555176,-0.28708434104919,-2.22208619117737,-0.22883756458759
241,1987419882,-18.55185317993164,-4.59128570556641,-47.57899093627930,0.80050581693649,-3.05277800559998,9.12999916076660,-0.57496279478073,-2.12785124778748,-0.14664150774479
242,1987428215,-18.55397415161133,-4.59075307846069,-47.57813644409180,0.79442554712296,-3.05509829521179,9.11446475982666,-0.79703813791275,-2.21081566810608,-0.07881499826908
243,1987436548,-18.55670738220215,-4.58978176116943,-47.57833862304688,0.80089950561523,-3.04846119880676,9.13425350189209,-0.86883479356766,-2.13005399703979,-0.18662531673908
244,1987444881,-18.55754280090332,-4.58941698074341,-47.57897186279297,0.80150246620178,-3.05623817443848,9.08478355407715,-0.65498161315918,-2.18653345108032,-0.21457043290138
245,1987453214,-18.55749702453613,-4.58904981613159,-47.57881164550781,0.81513410806656,-3.04528307914734,9.07128143310547,-0.53067576885223,-2.21368479728699,-0.16843922436237
246,1987461547,-18.55575180053711,-4.58910560607910,-47.57918167114258,0.80344152450562,-3.04136323928833,9.08396816253662,-0.34013143181801,-2.25658845901489,-0.16021703183651
247,1987469880,-18.55319213867188,-4.58797836303711,-47.57833480834961,0.78398400545120,-3.05202651023865,9.08625698089600,-0.22353541851044,-2.15215921401978,-0.06495769321918
248,1987478213,-18.55141067504883,-4.58934974670410,-47.57867431640625,0.79940104484558,-3.05824112892151,9.10516929626465,-0.34059247374535,-2.38424992561340,-0.27950254082680
249,1987486546,-18.55160331726074,-4.58912611007690,-47.57882308959961,0.81373333930969,-3.04674601554871,9.12740612030029,-0.56328254938126,-2.21757793426514,-0.20957565307617
250,1987494879,-18.55256271362305,-4.58866643905640,-47.57890701293945,0.78624415397644,-3.04881024360657,9.08304500579834,-0.66858273744583,-2.18550872802734,-0.18644601106644
251,1987503212,-18.55309486389160,-4.58872175216675,-47.57917404174805,0.78847712278366,-3.04839658737183,9.08843898773193,-0.60416299104691,-2.24406313896179,-0.23424217104912
252,1987511545,-18.55371093750000,-4.58883810043335,-47.57897949218750,0.80375498533249,-3.06244802474976,9.12560462951660,-0.62885504961014,-2.24083566665649,-0.23129653930664
253,1987519878,-18.55265617370605,-4.58876323699951,-47.57944488525391,0.79825174808502,-3.04865455627441,9.13753128051758,-0.41533482074738,-2.22328996658325,-0.24994370341301
254,1987528211,-18.55142211914062,-4.58930635452271,-47.57892227172852,0.80797761678696,-3.05806756019592,9.10286903381348,-0.39568871259689,-2.33691477775574,-0.11121702194214
255,1987536544,-18.55099487304688,-4.58933734893799,-47.57835769653320,0.79846096038818,-3.05928015708923,9.11288070678711,-0.48223915696144,-2.27349376678467,-0.13852177560329
256,1987544877,-18.54984855651855,-4.58977317810059,-47.57876205444336,0.79591596126556,-3.04899668693542,9.12768459320068,-0.41039124131203,-2.30056810379028,-0.17594417929649
257,1987553210,-18.55094909667969,-4.58984518051147,-47.57806015014648,0.78710621595383,-3.07178187370300,9.11152267456055,-0.66353672742844,-2.28407263755798,-0.12320447713137
258,1987561543,-18.55187988281250,-4.59019088745117,-47.57788848876953,0.81063282489777,-3.04772567749023,9.10781383514404,-0.65403389930725,-2.32346725463867,-0.07627919316292
259,1987569876,-18.55311965942383,-4.58954715728760,-47.57895278930664,0.78567326068878,-3.04434323310852,9.08590316772461,-0.69642543792725,-2.13510012626648,-0.29868757724762
260,1987578209,-18.55197143554688,-4.58854150772095,-47.57927703857422,0.79473239183426,-3.05303931236267,9.09852027893066,-0.41910010576248,-2.10986995697021,-0.20376124978065
261,1987586542,-18.55204391479492,-4.58761596679688,-47.57967376708984,0.79142957925797,-3.05713677406311,9.06910800933838,-0.54973268508911,-2.12772321701050,-0.21270060539246
262,1987594875,-18.55147361755371,-4.58735847473145,-47.57912826538086,0.79270446300507,-3.03582954406738,9.10825729370117,-0.47875565290451,-2.23317670822144,-0.11434194445610
263,1987603208,-18.55105590820312,-4.58661031723022,-47.57879257202148,0.79376262426376,-3.06340050697327,9.11583518981934,-0.48305884003639,-2.17644166946411,-0.13470526039600
264,1987611541,-18.55086135864258,-4.58557748794556,-47.57958602905273,0.79135429859161,-3.06205034255981,9.12622070312500,-0.53264796733856,-2.11138129234314,-0.18421757221222
265,1987619874,-18.55245399475098,-4.58463478088379,-47.57999038696289,0.77364248037338,-3.04549598693848,9.11291790008545,-0.73364287614822,-2.12631440162659,-0.21293112635612
266,1987628207,-18.55347251892090,-4.58450841903687,-47.57890701293945,0.81130063533783,-3.04979276657104,9.11325263977051,-0.66512477397919,-2.25610184669495,-0.09221124649048
267,1987636540,-18.55413627624512,-4.58418941497803,-47.57881927490234,0.79027074575424,-3.05251860618591,9.12212181091309,-0.61627858877182,-2.21639990806580,-0.17732736468315
268,1987644873,-18.55309104919434,-4.58480310440063,-47.57789993286133,0.79890710115433,-3.06376576423645,9.12333965301514,-0.41710224747658,-2.35302615165710,-0.09026456624269
269,1987653206,-18.55222511291504,-4.58399820327759,-47.57725906372070,0.77955985069275,-3.04915022850037,9.09159469604492,-0.42734789848328,-2.18128252029419,-0.09853795915842
270,1987661539,-18.55104255676270,-4.58425283432007,-47.57647323608398,0.80143338441849,-3.05158662796021,9.11477088928223,-0.40426945686340,-2.28886222839355,-0.14382392168045
271,1987669872,-18.55045700073242,-4.58475065231323,-47.57639694213867,0.79226142168045,-3.05013704299927,9.13629531860352,-0.46745973825455,-2.30822658538818,-0.21339218318462
272,1987678205,-18.56053543090820,-4.58256483078003,-47.58010101318359,0.76106280088425,-2.96098780632019,9.34642982482910,-1.79035818576813,-1.87611448764801,-0.44988840818405
273,1987686538,-18.68948745727539,-4.55233764648438,-47.61468887329102,0.63280969858170,-2.86794710159302,9.90593528747559,-16.34298706054688,2.50892734527588,-2.96323442459106
274,1987694871,-18.78694725036621,-4.64771699905396,-47.64219284057617,0.41531604528427,-4.02584457397461,7.55639410018921,-12.49629211425781,-12.08646488189697,-6.80227136611938
275,1987703204,-18.31471824645996,-4.53185892105103,-47.64579391479492,3.12009859085083,-2.17013859748840,6.31490659713745,56.09744262695312,11.07018375396729,3.81347107887268
276,1987711537,-18.53975677490234,-4.49427938461304,-47.41750717163086,-2.68232655525208,-3.12648439407349,16.15792465209961,-25.40143394470215,-6.59610843658447,27.14352607727051
277,1987719870,-18.35969924926758,-4.86195993423462,-47.58581161499023,3.28978276252747,-3.45400619506836,5.36798572540283,19.42131614685059,-37.73304748535156,-33.26055526733398
278,1987728203,-18.60349273681641,-4.76656532287598,-47.76008987426758,1.64342045783997,-5.37908077239990,6.15728187561035,-31.56320571899414,15.22295665740967,-16.32878875732422
279,1987736536,-18.93576431274414,-4.70097970962524,-47.61285018920898,-2.38309216499329,-2.98613309860229,9.77116584777832,-38.95487976074219,-0.46356713771820,19.00600814819336
280,1987744869,-19.00118446350098,-4.64998292922974,-47.61002349853516,-1.18203926086426,-2.56625866889954,10.04041194915771,-8.37191200256348,3.43936491012573,2.11352062225342
281,1987753202,-18.89785957336426,-4.62177276611328,-47.58035659790039,1.50919735431671,-2.79186511039734,8.44955730438232,12.14907741546631,-0.19956053793430,4.25405120849609
282,1987761535,-18.67586708068848,-4.72980690002441,-47.48293685913086,1.82632327079773,-4.36859321594238,6.98650360107422,27.04267311096191,-18.26665306091309,6.65761899948120
283,1987769868,-18.43254661560059,-4.77679538726807,-47.46035003662109,3.43823289871216,-3.75315856933594,7.21065998077393,28.88561820983887,-8.45357418060303,0.56393623352051
284,1987778201,-18.03209304809570,-4.44483757019043,-47.53695678710938,2.71835660934448,0.95291781425476,14.48410606384277,46.76924896240234,38.46326828002930,3.56373310089111
285,1987786534,-18.97039222717285,-4.55068016052246,-47.40495300292969,-2.71937417984009,-0.12933094799519,13.47708511352539,-111.89616394042969,-19.30525779724121,10.74479484558105
286,1987794867,-18.83937644958496,-4.64632654190063,-47.46663284301758,-2.39117932319641,-8.10927391052246,4.20162534713745,14.57564640045166,-10.70547294616699,-10.89307117462158
287,1987803200,-18.05812835693359,-4.62988901138306,-47.54129791259766,7.75933504104614,-2.91892361640930,5.91981267929077,92.49160003662109,2.44821405410767,-8.04933357238770
288,1987811533,-18.78663253784180,-4.74134254455566,-47.41466903686523,-4.53384399414062,2.21444201469421,16.67056846618652,-86.73237609863281,-19.71789932250977,9.94721698760986
289,1987819866,-18.41941070556641,-4.99692916870117,-47.42405319213867,4.64670133590698,-9.87294101715088,-1.14036703109741,43.43313217163086,-30.96059226989746,-11.04893207550049
290,1987828199,-17.79964065551758,-4.50411605834961,-47.55081176757812,-1.46777355670929,5.62894868850708,22.17574691772461,72.56143951416016,58.68205642700195,3.78093314170837
291,1987836532,-18.03775596618652,-4.71160936355591,-47.45208358764648,1.80636680126190,-11.41537094116211,-4.63622665405273,-28.16094970703125,-29.57444572448730,3.37453985214233
292,1987844865,-18.23322105407715,-4.83455944061279,-47.43881225585938,0.60689252614975,6.51006889343262,23.25180244445801,-23.88268089294434,-16.75574493408203,-3.27975177764893
293,1987853198,-17.96168327331543,-4.81729841232300,-47.55039978027344,1.70966589450836,-11.37156295776367,-2.12656354904175,30.92208671569824,3.86551189422607,-12.24312973022461
294,1987861531,-18.55340576171875,-4.48281097412109,-47.56470870971680,-3.44943547248840,3.59935760498047,20.28241920471191,-71.70554351806641,36.41705703735352,10.75390434265137
295,1987869864,-18.34997940063477,-4.29216718673706,-47.73892974853516,8.00610256195068,-7.53382921218872,-2.65641498565674,22.27351570129395,26.04990386962891,-12.73567008972168
296,1987878197,-19.06702232360840,-4.66553449630737,-47.56634140014648,-5.95934581756592,-1.13805341720581,14.85410022735596,-84.98726654052734,-51.30381393432617,4.98842859268188
297,1987886530,-18.55787658691406,-4.32586622238159,-47.56478118896484,7.13825750350952,-0.92421197891235,9.45265197753906,60.57696151733398,36.27437210083008,13.11909675598145
298,1987894863,-19.19098663330078,-4.20311641693115,-47.54972839355469,-6.14029645919800,-10.16760444641113,1.29811882972717,-76.39581298828125,11.11488151550293,6.27471399307251
299,1987903196,-18.33377075195312,-4.50839471817017,-47.56856918334961,5.75838804244995,6.77032804489136,21.96780014038086,102.16085052490234,-36.21140289306641,-14.12014770507812
300,1987911529,-18.31219482421875,-4.87577009201050,-47.51019668579102,-1.86016488075256,-12.53731727600098,-3.02302193641663,2.61356639862061,-46.28970336914062,-7.42722034454346
301,1987919862,-18.05574226379395,-4.38084363937378,-47.73150253295898,-1.31123292446136,6.21590042114258,22.98901557922363,28.09463882446289,62.43932342529297,-6.81594991683960
302,1987928195,-18.38566398620605,-4.64750814437866,-47.67461013793945,6.44144153594971,-9.52987861633301,-3.86795878410339,-39.60180664062500,-34.76387786865234,-3.73415446281433
303,1987936528,-18.95140075683594,-4.63484573364258,-47.59888076782227,-5.07819128036499,1.26540267467499,16.93395996093750,-67.69429779052734,-3.70916128158569,8.86475181579590
304,1987944861,-17.79602432250977,-4.57006502151489,-47.71858596801758,7.92816209793091,-3.52092504501343,6.96114540100098,136.94607543945312,9.65522956848145,-11.33738136291504
305,1987953194,-18.92795753479004,-4.74729251861572,-47.57221603393555,-8.62382793426514,-4.95783948898315,9.59917926788330,-134.94902038574219,-27.94849395751953,9.71399116516113
306,1987961527,-18.66211128234863,-4.47831392288208,-47.60551071166992,8.88353824615479,2.16302037239075,13.35967350006104,31.02871322631836,29.60204315185547,6.43951845169067
307,1987969860,-18.18818283081055,-4.32323741912842,-47.66006088256836,-5.77949810028076,-9.66954040527344,2.66569995880127,55.83283996582031,17.47071647644043,-0.51318275928497
308,1987978193,-18.58893966674805,-4.78501605987549,-47.51104354858398,5.43853139877319,5.02449560165405,17.71691894531250,-47.23174667358398,-60.44738006591797,-0.75920987129211
309,1987986526,-18.32752418518066,-4.47923088073730,-47.64398956298828,-2.09091401100159,-11.15418243408203,-1.44071602821350,29.54544830322266,37.59543228149414,-3.66586494445801
310,1987994859,-18.90686035156250,-4.43374156951904,-47.55747604370117,0.89850968122482,6.63146114349365,22.49838447570801,-69.27678680419922,-0.37156170606613,11.35482597351074
311,1988003192,-19.30234336853027,-4.52644157409668,-47.46339797973633,2.75909423828125,-11.97350883483887,-5.60292053222656,-47.11702728271484,-16.44391441345215,6.79264116287231
312,1988011525,-18.37816047668457,-3.92994832992554,-47.57210922241211,-2.87448477745056,4.09301233291626,21.42983436584473,109.38436889648438,69.70763397216797,10.60935688018799
313,1988019858,-18.79571342468262,-4.86527538299561,-47.38623809814453,6.65027475357056,-8.86228656768799,-2.40711212158203,-48.93561172485352,-115.72713470458984,-14.90016555786133
314,1988028191,-19.01164436340332,-4.45804738998413,-47.47617340087891,-6.95131444931030,1.19542729854584,18.26335525512695,-27.34805870056152,47.47581100463867,5.45980405807495
315,1988036524,-18.39113616943359,-4.17196035385132,-47.64113998413086,8.44539928436279,-4.51740932464600,2.43333458900452,72.43473815917969,36.59938812255859,-7.89202404022217
316,1988044857,-19.09801101684570,-4.72656965255737,-47.36633300781250,-7.24027872085571,-3.89567112922668,11.21754837036133,-82.82640075683594,-75.83693695068359,9.55445861816406
317,1988053190,-18.50950050354004,-4.84099864959717,-47.44824218750000,8.61777114868164,0.99730682373047,11.81520748138428,69.26554107666016,-12.09030628204346,-13.90054798126221
318,1988061523,-18.29472732543945,-4.46694707870483,-47.65374755859375,-6.30023670196533,-7.91555786132812,5.89971160888672,23.21837806701660,48.10845947265625,-9.35493087768555
319,1988069856,-18.55919837951660,-4.61883640289307,-47.52640151977539,7.18251943588257,5.12533283233643,17.21882820129395,-31.06629371643066,-24.35789108276367,8.48988914489746
320,1988078189,-19.32507133483887,-4.54910230636597,-47.43870925903320,-3.02227997779846,-12.17285823822021,-3.07186245918274,-91.62174987792969,2.26617217063904,12.44298839569092
321,1988086522,-18.93945312500000,-3.99697637557983,-47.48341369628906,1.85665750503540,5.91667222976685,22.16127586364746,45.33778381347656,62.10406112670898,16.45896339416504
322,1988094855,-19.03129386901855,-4.29421615600586,-47.43156433105469,0.80292087793350,-13.10425758361816,-6.22621107101440,-11.12261390686035,-37.98937606811523,-5.93410968780518
323,1988103188,-19.03098869323730,-4.72061681747437,-47.46775436401367,-0.98322480916977,5.89749383926392,22.48615264892578,-0.84265905618668,-49.21067047119141,-20.97954177856445
324,1988111521,-18.18122100830078,-4.85100221633911,-47.57147979736328,4.43758630752563,-8.68159961700439,0.41201171278954,100.38438415527344,-13.11120319366455,-16.94351387023926
325,1988119854,-19.13728523254395,-4.80539131164551,-47.53268432617188,-6.78217649459839,1.68129920959473,17.15928649902344,-114.87674713134766,1.45379137992859,5.94745111465454
326,1988128187,-18.96105194091797,-4.55045747756958,-47.51319885253906,9.98242855072021,-4.17906665802002,3.83561897277832,20.78347587585449,25.91826248168945,11.99437713623047
327,1988136520,-18.50580978393555,-4.13259649276733,-47.53331375122070,-7.26504135131836,-4.18733978271484,10.98705863952637,53.91107940673828,46.01360702514648,13.62525939941406
328,1988144853,-18.70412445068359,-4.69540262222290,-47.39209747314453,8.08635044097900,0.94315469264984,11.54884338378906,-23.05146789550781,-71.63909912109375,-5.73000955581665
329,1988153186,-19.13932418823242,-4.46709060668945,-47.46717071533203,-6.24545001983643,-9.20228004455566,3.31212282180786,-53.48402404785156,26.58078384399414,0.18820118904114
330,1988161519,-18.36669349670410,-3.94960212707520,-47.63796997070312,5.70248842239380,4.16307353973389,16.91704750061035,90.65318298339844,63.13746261596680,0.41642794013023
331,1988169852,-19.33578300476074,-4.90452575683594,-47.42181777954102,-2.04842281341553,-11.30124378204346,-2.62474346160889,-114.82955169677734,-119.05497741699219,-12.75384044647217
332,1988178185,-18.34359169006348,-4.14644289016724,-47.65270233154297,1.65254878997803,5.97101402282715,21.82709312438965,116.31798553466797,92.77933502197266,3.04432415962219
333,1988186518,-19.39145278930664,-4.74540472030640,-47.48324203491211,1.74744367599487,-11.20455169677734,-3.91268062591553,-124.70984649658203,-76.82213592529297,-4.26059865951538
334,1988194851,-18.61107254028320,-4.00104141235352,-47.59564971923828,-2.13045430183411,5.65246486663818,23.06853294372559,92.05747985839844,86.59465026855469,16.17737388610840
335,1988203184,-19.16103363037109,-4.57647132873535,-47.41829681396484,4.96711683273315,-10.57825183868408,-3.67472743988037,-64.94376373291016,-74.45484924316406,-2.47176933288574
336,1988211517,-19.64230155944824,-4.35083818435669,-47.46600723266602,-5.84744215011597,2.29608106613159,17.48029518127441,-58.76459121704102,25.19177818298340,3.41517114639282
337,1988219850,-18.43663406372070,-4.38876438140869,-47.59949493408203,9.40244197845459,-5.57990884780884,4.20421409606934,142.92572021484375,-1.34059679508209,-16.78562164306641
338,1988228183,-19.04918670654297,-4.58519268035889,-47.43517303466797,-8.53566646575928,-2.68618011474609,13.68369865417480,-72.52580261230469,-30.88399887084961,10.85367107391357
339,1988236516,-18.18187522888184,-4.30398464202881,-47.73050308227539,8.35425090789795,-1.16519367694855,6.74602317810059,100.79684448242188,41.01161956787109,-22.91597557067871
340,1988244849,-19.03802299499512,-4.74569416046143,-47.58899307250977,-5.04128503799438,-6.81531953811646,6.03337287902832,-101.96086883544922,-57.88355255126953,-1.07235300540924
341,1988253182,-18.49217796325684,-4.69670867919922,-47.60787200927734,6.83617591857910,3.81049394607544,17.08952140808105,64.77754974365234,4.04336214065552,-0.45006933808327
342,1988261515,-18.33324813842773,-4.49912452697754,-47.71647262573242,-5.06277036666870,-10.57279014587402,1.84894144535065,17.47131729125977,24.35829544067383,-5.03186893463135
343,1988269848,-18.64334487915039,-4.56383705139160,-47.66862869262695,4.14461994171143,6.59261226654053,20.94628906250000,-37.29780960083008,-11.42962455749512,2.76614880561829
344,1988278181,-19.07453727722168,-4.42500734329224,-47.64495849609375,0.07897843420506,-13.09413909912109,-6.14247322082520,-52.07961654663086,12.60967826843262,7.86298990249634
345,1988286514,-19.11331558227539,-4.39778232574463,-47.60645294189453,-0.12866470217705,6.19103574752808,23.49353981018066,-4.83604478836060,-0.66804498434067,5.22267866134644
346,1988294847,-18.79156112670898,-4.63993406295776,-47.61273193359375,3.15514779090881,-11.24784660339355,-3.37533688545227,37.99676132202148,-29.48253250122070,-10.34743022918701
347,1988303180,-18.72161102294922,-4.31253433227539,-47.74123764038086,-4.44177341461182,3.74489188194275,21.18078804016113,6.65332078933716,39.89693069458008,-2.12549781799316
348,1988311513,-18.81031799316406,-4.59527873992920,-47.74766921997070,7.78660392761230,-7.11271953582764,-1.07107126712799,-11.26249027252197,-34.11789703369141,-11.84769916534424
349,1988319846,-19.42779159545898,-4.64778757095337,-47.71158218383789,-5.57276821136475,-0.84249097108841,14.13206768035889,-74.29007720947266,-9.61639976501465,1.81276679039001
350,1988328179,-18.15050125122070,-4.59015321731567,-47.78476333618164,7.51529598236084,-2.23687982559204,8.35306358337402,152.01473999023438,7.12898397445679,-6.25781345367432
351,1988336512,-19.13980293273926,-4.74427795410156,-47.62579727172852,-6.43061876296997,-5.81035518646240,8.39520835876465,-117.70568847656250,-25.85268020629883,11.90153884887695
352,1988344845,-18.83695411682129,-4.31237745285034,-47.67448043823242,8.14979362487793,2.43565702438354,13.10777950286865,35.31718444824219,48.66600799560547,11.15914535522461
353,1988353178,-19.04827499389648,-4.28570747375488,-47.52608108520508,-6.27573919296265,-9.21002578735352,4.08600854873657,-24.56219863891602,-4.98642921447754,17.63619422912598
354,1988361511,-18.08073997497559,-4.16330623626709,-47.60491561889648,4.67756652832031,3.66980838775635,16.86301040649414,114.84770965576172,14.68972015380859,-4.46195030212402
355,1988369844,-19.02272987365723,-5.21636438369751,-47.55629730224609,-1.94163095951080,-11.33887004852295,-2.77093672752380,-113.10241699218750,-123.90544128417969,-34.89735412597656
356,1988378177,-18.11999511718750,-4.37958288192749,-47.88280487060547,2.03199672698975,6.69453573226929,21.53405952453613,104.48930358886719,105.38097381591797,-5.21925783157349
357,1988386510,-19.22438430786133,-4.79376220703125,-47.64660263061523,2.16368174552917,-10.79657268524170,-3.41333436965942,-130.80371093750000,-58.38223648071289,10.65480709075928
358,1988394843,-18.90221214294434,-4.10368776321411,-47.67464828491211,-2.71807885169983,5.33977222442627,23.15606689453125,37.83570098876953,77.12255096435547,23.68381690979004
359,1988403176,-18.91300201416016,-4.20127677917480,-47.62301254272461,5.27569913864136,-10.94448280334473,-4.34209012985229,-1.38473141193390,-15.33071136474609,1.85112833976746
360,1988411509,-19.13013839721680,-4.63472986221313,-47.62165832519531,-5.47509670257568,2.42847871780396,19.83276748657227,-26.61330413818359,-51.47069549560547,-17.00132560729980
361,1988419842,-18.54856109619141,-4.46546936035156,-47.79769134521484,8.45224571228027,-6.22304391860962,-0.03245836123824,67.57718658447266,23.77474403381348,-13.57191944122314
362,1988428175,-19.39963531494141,-4.65704536437988,-47.70661163330078,-7.90457391738892,-1.45796132087708,14.98492240905762,-101.83012390136719,-27.52803993225098,2.63210606575012
363,1988436508,-18.43389892578125,-4.21133899688721,-47.84056091308594,9.01004791259766,-1.24439013004303,7.23039007186890,114.11151123046875,53.54616546630859,1.97697293758392
364,1988444841,-19.39380455017090,-4.72348594665527,-47.66002655029297,-7.64744758605957,-7.72513866424561,5.95562028884888,-114.06703948974609,-67.38938140869141,0.31417623162270
365,1988453174,-18.36852645874023,-4.08620738983154,-47.78456878662109,7.88503217697144,3.61203432083130,16.17152404785156,121.35021209716797,74.93585205078125,10.44709396362305
366,1988461507,-19.51575851440430,-4.67406320571899,-47.63492202758789,-4.14185905456543,-10.87712478637695,-0.47602105140686,-136.86067199707031,-74.78523254394531,-6.15477228164673
367,1988469840,-19.22748184204102,-4.25726079940796,-47.71818923950195,3.30447697639465,6.72194242477417,22.15690803527832,33.27676773071289,48.24175643920898,6.99284839630127
368,1988478173,-19.30239868164062,-4.20817613601685,-47.71102523803711,1.07033777236938,-13.10496044158936,-6.46249246597290,-9.48443889617920,3.03568434715271,2.55393123626709
369,1988486506,-19.04192543029785,-4.50073480606079,-47.65010452270508,-2.02354645729065,5.70683622360229,23.58199501037598,31.27352714538574,-37.80395507812500,-4.84450817108154
370,1988494839,-19.13648414611816,-4.83292722702026,-47.62359619140625,5.49876642227173,-10.62894153594971,-4.56587219238281,-11.64670848846436,-40.94954299926758,-10.23876857757568
371,1988503172,-19.18129920959473,-4.22266483306885,-47.72848892211914,-5.97799587249756,2.94881105422974,20.45155525207520,-6.90998458862305,71.04800415039062,11.97902774810791
372,1988511505,-18.57151985168457,-4.21065330505371,-47.72621917724609,7.88289880752563,-5.98279809951782,0.48183810710907,72.63724517822266,-0.96238249540329,0.53358542919159
373,1988519838,-19.06200027465820,-4.85693883895874,-47.51290130615234,-8.03399944305420,-1.19069671630859,15.09319591522217,-57.37548065185547,-83.89199066162109,-1.06333327293396
374,1988528171,-18.62868118286133,-4.69688415527344,-47.61847305297852,9.82471275329590,-2.48764014244080,7.01380252838135,50.38288116455078,20.01774215698242,-5.93442344665527
375,1988536504,-19.55964088439941,-4.35488986968994,-47.61731338500977,-7.00688934326172,-6.86428880691528,5.70603227615356,-112.24709320068359,36.48809432983398,13.35441589355469
376,1988544837,-18.94026756286621,-4.35990381240845,-47.56573867797852,8.42057991027832,4.66168832778931,18.22676658630371,74.23326110839844,-4.84321403503418,5.43448257446289
377,1988553170,-18.86078834533691,-4.54887342453003,-47.51160812377930,-6.43725538253784,-11.37149715423584,0.47551652789116,9.50376987457275,-25.79903030395508,-1.42105293273926
378,1988561503,-19.06126213073730,-4.70840263366699,-47.64682388305664,4.49485683441162,5.40804815292358,18.66437911987305,-25.93636131286621,-15.09125709533691,-21.71231460571289
379,1988569836,-19.69490242004395,-4.62642908096313,-47.65378570556641,-0.43548294901848,-12.03766822814941,-5.27745962142944,-76.64566802978516,7.30702352523804,2.27779603004456
380,1988578169,-19.12272644042969,-3.94001555442810,-47.63137054443359,1.13342905044556,6.38726806640625,23.38672828674316,68.29345703125000,74.55730438232422,29.70707893371582
381,1988586502,-19.15095520019531,-4.33097553253174,-47.46530914306641,2.49311041831970,-11.92401695251465,-5.01661920547485,-2.48822402954102,-53.08916854858398,3.19644641876221
382,1988594835,-18.84753417968750,-4.70968294143677,-47.55388259887695,-4.40205192565918,5.77435207366943,24.35757446289062,35.00476837158203,-41.76470565795898,-25.00853729248047
383,1988603168,-18.52576828002930,-4.69298744201660,-47.73727416992188,6.45907306671143,-10.02103996276855,-5.43870687484741,36.27138519287109,6.67570686340332,-20.33783531188965
384,1988611501,-19.12947845458984,-4.65605783462524,-47.67204284667969,-5.63790369033813,2.52990198135376,19.52528953552246,-72.38174438476562,-0.56858748197556,8.61929512023926
385,1988619834,-18.75820159912109,-4.38208913803101,-47.65580749511719,9.68508815765381,-5.17014551162720,3.11540889739990,44.16921234130859,28.21746826171875,12.30765914916992
386,1988628167,-19.80632972717285,-4.29637718200684,-47.54631423950195,-7.83918237686157,-4.29203033447266,9.84871292114258,-125.35335540771484,3.13436818122864,15.56633472442627
387,1988636500,-18.45236206054688,-4.42034101486206,-47.67785644531250,8.10596275329590,0.91025090217590,13.77499008178711,160.74438476562500,-11.14483261108398,-19.94836616516113
388,1988644833,-19.53920364379883,-4.75331735610962,-47.61119079589844,-7.71100044250488,-10.29763126373291,0.82893371582031,-130.35066223144531,-42.62502288818359,-5.66288900375366
389,1988653166,-18.63247299194336,-4.35481786727905,-47.84508514404297,7.92541885375977,6.15464448928833,19.38025093078613,106.04553985595703,52.09437561035156,-11.00554847717285
390,1988661499,-19.58533477783203,-4.50701951980591,-47.72689056396484,-3.96977305412292,-11.87566089630127,-3.69345331192017,-113.81455993652344,-24.13340759277344,7.18461036682129
391,1988669832,-18.89746093750000,-4.32369089126587,-47.80702972412109,3.54750847816467,7.83981752395630,24.32812500000000,81.26838684082031,21.68195533752441,-2.00373721122742
392,1988678165,-19.41145896911621,-4.51706266403198,-47.68122100830078,0.16698877513409,-14.22710609436035,-6.90814256668091,-61.07867431640625,-29.10387992858887,6.40741395950317
393,1988686498,-19.35292816162109,-4.32582330703735,-47.59349822998047,2.39869356155396,5.72183752059937,20.97619438171387,7.29666662216187,15.91711616516113,17.31624412536621
394,1988694831,-18.98935699462891,-4.22750425338745,-47.60125732421875,-2.92817473411560,-3.18631410598755,10.74633598327637,42.99811172485352,9.20657825469971,2.80075478553772
395,1988703164,-19.42007255554199,-4.62802553176880,-47.55472183227539,1.41574573516846,-4.67964696884155,4.84369230270386,-51.79521942138672,-49.47000122070312,-10.75267601013184
396,1988711497,-19.16445159912109,-4.60842943191528,-47.63360977172852,3.60851812362671,-6.43389081954956,4.69963169097900,29.34309005737305,3.09229421615601,-8.32483863830566
397,1988719830,-19.44816398620605,-4.58972358703613,-47.59028625488281,-2.78623461723328,-3.30752062797546,11.58501434326172,-34.16880798339844,-1.84430348873138,5.43013381958008
398,1988728163,-18.92822647094727,-4.69716405868530,-47.56582260131836,3.03958821296692,-1.49459087848663,7.76950168609619,62.06810760498047,-15.38086605072021,-1.66826105117798
399,1988736496,-19.12313270568848,-4.66124963760376,-47.53952407836914,-0.74792957305908,-3.76053547859192,11.28966712951660,-23.67038154602051,0.80050921440125,4.17603158950806
400,1988744829,-18.73560523986816,-4.84566593170166,-47.48967742919922,2.39123320579529,-3.50930857658386,5.52466201782227,46.43430328369141,-25.11097717285156,-1.73472833633423
401,1988753162,-18.68814659118652,-4.54405069351196,-47.49308395385742,0.85765844583511,-1.15590786933899,12.91678047180176,5.12278938293457,32.16405105590820,11.02493000030518
402,1988761495,-19.04160881042480,-4.69656133651733,-47.41217422485352,-1.12996065616608,-4.03182601928711,10.81473350524902,-42.20170593261719,-22.69107818603516,3.04173469543457
403,1988769828,-19.45905113220215,-4.72029209136963,-47.67434692382812,1.54510211944580,-3.40883946418762,7.00078678131104,-53.21529388427734,5.40125417709351,-30.74392509460449
404,1988778161,-19.55527305603027,-4.59728097915649,-47.70585632324219,2.07396411895752,-2.65447449684143,7.81350135803223,-12.42265129089355,12.92857170104980,1.17611646652222
405,1988786494,-19.36233329772949,-4.61471319198608,-47.55302429199219,0.02013291418552,-3.95553994178772,8.65368938446045,24.08804512023926,-10.31130123138428,16.33952903747559
406,1988794827,-19.16290855407715,-4.63781452178955,-47.57400512695312,0.61150956153870,-3.23360466957092,9.22708415985107,23.16287422180176,-4.03165721893311,-3.48456239700317
407,1988803160,-19.06053161621094,-4.65278816223145,-47.54423522949219,1.13030636310577,-2.57883191108704,9.81047153472900,12.03558063507080,-5.11298608779907,2.57595992088318
408,1988811493,-19.13233375549316,-4.64773464202881,-47.53276824951172,0.48454716801643,-3.12020802497864,9.82487010955811,-9.07043743133545,-2.11942458152771,1.29942309856415
409,1988819826,-19.32476615905762,-4.63389921188354,-47.59536743164062,0.76738160848618,-3.10783004760742,9.27330875396729,-24.23925018310547,1.78565883636475,-6.72563552856445
410,1988828159,-19.48853111267090,-4.61870622634888,-47.62928009033203,0.97225195169449,-3.20582699775696,8.66675758361816,-20.54723548889160,0.82317775487900,-3.41040873527527
411,1988836492,-19.53570175170898,-4.60815191268921,-47.63462448120117,0.81427073478699,-3.44299745559692,8.47092628479004,-6.25192260742188,-0.84129947423935,-0.38147279620171
412,1988844825,-19.44866943359375,-4.61829710006714,-47.62112045288086,0.81231617927551,-3.37029290199280,8.58323192596436,10.00782775878906,-3.93027400970459,0.91812950372696
413,1988853158,-19.28396034240723,-4.63593482971191,-47.58558273315430,0.87940675020218,-3.20037746429443,8.89634799957275,19.57101249694824,-5.65595817565918,3.10924887657166
414,1988861491,-19.12430191040039,-4.65376281738281,-47.54348754882812,0.78251492977142,-3.09931731224060,9.26550006866455,19.00393867492676,-5.92178201675415,3.85657024383545
415,1988869824,-19.03558349609375,-4.66569805145264,-47.52210235595703,0.75635880231857,-3.04442143440247,9.45072078704834,10.31678771972656,-4.43753910064697,1.74769783020020
416,1988878157,-19.04307556152344,-4.66552019119263,-47.52403259277344,0.79465448856354,-2.99324989318848,9.49607467651367,-1.48431921005249,-2.14941859245300,-0.40631860494614
417,1988886490,-19.12908935546875,-4.65486717224121,-47.54065704345703,0.80634772777557,-3.05580425262451,9.29204463958740,-11.02288246154785,-0.38995116949081,-1.66151869297028
418,1988894823,-19.23904418945312,-4.64120244979858,-47.56381225585938,0.77619993686676,-3.18210697174072,9.02108287811279,-13.98609256744385,0.21506996452808,-2.27474951744080
419,1988903156,-19.31874275207520,-4.63115835189819,-47.58371353149414,0.83022618293762,-3.21892952919006,8.85024261474609,-10.29559135437012,-0.32491660118103,-2.05152106285095
420,1988911489,-19.33975791931152,-4.62768077850342,-47.58795547485352,0.83287024497986,-3.24047493934631,8.82259273529053,-3.13026452064514,-1.68267607688904,-0.53272485733032
421,1988919822,-19.30802726745605,-4.63074684143066,-47.58179473876953,0.81204158067703,-3.21736216545105,8.92151355743408,3.32899284362793,-2.83826255798340,0.37175223231316
422,1988928155,-19.25081634521484,-4.63634204864502,-47.57032012939453,0.80004942417145,-3.16653323173523,9.05501174926758,6.41094827651978,-3.33115673065186,0.87712103128433
423,1988936488,-19.20100021362305,-4.64262199401855,-47.55894851684570,0.80391693115234,-3.13914823532104,9.16866493225098,5.55077123641968,-3.40810203552246,0.83498567342758
424,1988944821,-19.18021392822266,-4.64430952072144,-47.55384445190430,0.77814286947250,-3.09951853752136,9.22031497955322,1.97761106491089,-2.63483405113220,0.31593880057335
425,1988953154,-19.19269943237305,-4.64243030548096,-47.55593109130859,0.81704878807068,-3.13505291938782,9.21376800537109,-2.05587553977966,-1.95436620712280,-0.36303052306175
426,1988961487,-19.22418403625488,-4.63876438140869,-47.56177139282227,0.80132120847702,-3.12381172180176,9.11347007751465,-4.40221643447876,-1.59745740890503,-0.70928382873535
427,1988969820,-19.25459289550781,-4.63495588302612,-47.56767272949219,0.79466634988785,-3.18683314323425,9.04150867462158,-4.24481725692749,-1.58511137962341,-0.71786457300186
428,1988978153,-19.26810455322266,-4.63375473022461,-47.57131195068359,0.81198072433472,-3.17918634414673,8.98857784271240,-2.22103595733643,-1.96315193176270,-0.55862092971802
429,1988986486,-19.26023864746094,-4.63487291336060,-47.56960678100586,0.79701858758926,-3.17497134208679,8.97648429870605,0.42116209864616,-2.44382858276367,-0.05145900323987
430,1988994819,-19.23887252807617,-4.63688039779663,-47.56619644165039,0.80269950628281,-3.16300773620605,9.05767059326172,2.03142666816711,-2.60483980178833,0.10510802268982
431,1989003152,-19.21719932556152,-4.63917493820190,-47.56109237670898,0.79779380559921,-3.12955451011658,9.10008811950684,2.11221432685852,-2.71083164215088,0.28371608257294
432,1989011485,-19.20622253417969,-4.64025306701660,-47.55825424194336,0.78635650873184,-3.12654495239258,9.15098953247070,0.77786594629288,-2.47920179367065,0.08041589707136
433,1989019818,-19.21194076538086,-4.64039707183838,-47.55835342407227,0.80341613292694,-3.15417242050171,9.11708545684814,-1.22592282295227,-2.26009750366211,-0.21846380829811
434,1989028151,-19.22734832763672,-4.63919734954834,-47.56075286865234,0.79858136177063,-3.15592050552368,9.10115146636963,-2.43834733963013,-2.01366305351257,-0.42140540480614
435,1989036484,-19.24486541748047,-4.63763284683228,-47.56367492675781,0.80246466398239,-3.19355368614197,9.06548213958740,-2.67015600204468,-1.95669698715210,-0.46973943710327
436,1989044817,-19.25382232666016,-4.63685083389282,-47.56490707397461,0.81885486841202,-3.18909215927124,9.02245235443115,-1.65222060680389,-2.10776996612549,-0.30381044745445
437,1989053150,-19.25160598754883,-4.63712787628174,-47.56399536132812,0.80872505903244,-3.18772983551025,9.01634788513184,-0.26395469903946,-2.31552696228027,-0.10980822145939
438,1989061483,-19.24020576477051,-4.63797092437744,-47.56226348876953,0.80441963672638,-3.15792393684387,9.04036235809326,0.82069283723831,-2.40894150733948,-0.03204340487719
439,1989069816,-19.22661399841309,-4.64023208618164,-47.55912399291992,0.81905519962311,-3.12542414665222,9.12444877624512,1.12355554103851,-2.62868642807007,0.06484243273735
440,1989078149,-19.21872520446777,-4.64145851135254,-47.55595016479492,0.79989868402481,-3.12598276138306,9.11782646179199,0.41081389784813,-2.50599431991577,0.11317648738623
441,1989086482,-19.21920967102051,-4.64168405532837,-47.55481719970703,0.80775690078735,-3.13187026977539,9.12327861785889,-0.58564382791519,-2.32039356231689,-0.08135081082582
442,1989094815,-19.22642517089844,-4.64121198654175,-47.55517196655273,0.79912173748016,-3.15693736076355,9.11039257049561,-1.43485820293427,-2.17318868637085,-0.21777224540710
443,1989103148,-19.23634338378906,-4.63937091827393,-47.55639648437500,0.80874574184418,-3.17893886566162,9.06898307800293,-1.73992395401001,-1.99294126033783,-0.26654171943665
444,1989111481,-19.24295806884766,-4.63874673843384,-47.55710601806641,0.80848312377930,-3.17727231979370,9.07892131805420,-1.36769771575928,-2.14560222625732,-0.24607597291470
445,1989119814,-19.24424362182617,-4.63887834548950,-47.55721282958984,0.79684913158417,-3.16819357872009,9.01253414154053,-0.69427376985550,-2.25879120826721,-0.21731115877628
446,1989128147,-19.24101448059082,-4.63878536224365,-47.55578613281250,0.80797338485718,-3.17123293876648,9.03822803497314,-0.16321389377117,-2.28706932067871,-0.03186410665512
447,1989136480,-19.23628616333008,-4.64005422592163,-47.55514144897461,0.78892648220062,-3.16334843635559,9.08578109741211,0.03536045178771,-2.41864967346191,-0.17796769738197
448,1989144813,-19.23287582397461,-4.64046001434326,-47.55405044555664,0.78874909877777,-3.15534830093384,9.07769489288330,-0.14520710706711,-2.33268833160400,-0.08862525224686
449,1989153146,-19.23255348205566,-4.64049911499023,-47.55366134643555,0.78789556026459,-3.15602231025696,9.09000301361084,-0.49560979008675,-2.26901125907898,-0.15857771039009
450,1989161479,-19.23316764831543,-4.64001321792603,-47.55356597900391,0.82812905311584,-3.15927338600159,9.07015609741211,-0.63856285810471,-2.19155383110046,-0.16825990378857
451,1989169812,-19.23368644714355,-4.63956069946289,-47.55268478393555,0.79226022958755,-3.14313840866089,9.09082794189453,-0.59179127216339,-2.23161482810974,-0.08265713602304
452,1989178145,-19.23337936401367,-4.63910770416260,-47.55210494995117,0.79421651363373,-3.16080236434937,9.09094429016113,-0.52445137500763,-2.21537494659424,-0.11487982422113
453,1989186478,-19.23261260986328,-4.63904857635498,-47.55173110961914,0.80613148212433,-3.16991758346558,9.06383609771729,-0.44284451007843,-2.25753617286682,-0.15586259961128
454,1989194811,-19.23237609863281,-4.63838291168213,-47.55134201049805,0.80522704124451,-3.16492128372192,9.05931949615479,-0.53205889463425,-2.18194866180420,-0.12853223085403
455,1989203144,-19.23526382446289,-4.63862085342407,-47.55117797851562,0.82638394832611,-3.15216231346130,9.05634593963623,-0.88381922245026,-2.28179287910461,-0.19062115252018
456,1989211477,-19.23780059814453,-4.63916063308716,-47.55117034912109,0.79777234792709,-3.17175793647766,9.06944656372070,-0.86927032470703,-2.30604958534241,-0.21577434241772
457,1989219810,-19.23918342590332,-4.63957214355469,-47.55086898803711,0.80744075775146,-3.17747807502747,9.08174991607666,-0.70149707794189,-2.30832934379578,-0.18408952653408
458,1989228143,-19.23760795593262,-4.63932800292969,-47.55046844482422,0.79985982179642,-3.15892124176025,9.08063507080078,-0.37191867828369,-2.22936081886292,-0.13514070212841
459,1989236476,-19.23489952087402,-4.63966751098633,-47.54990386962891,0.79433625936508,-3.15316510200500,9.05459499359131,-0.20931954681873,-2.31068587303162,-0.15212295949459
460,1989244809,-19.23128509521484,-4.63954162597656,-47.54877853393555,0.79098606109619,-3.18457698822021,9.08792304992676,-0.11867076158524,-2.27328896522522,-0.06198645010591
461,1989253142,-19.22961616516113,-4.63960695266724,-47.54774856567383,0.78700405359268,-3.14872431755066,9.08933258056641,-0.32870745658875,-2.29751992225647,-0.08716524392366
462,1989261475,-19.23007774353027,-4.63914346694946,-47.54754638671875,0.78916746377945,-3.15751075744629,9.10761260986328,-0.61958271265030,-2.19846963882446,-0.15322434902191
463,1989269808,-19.23264503479004,-4.63983869552612,-47.54716873168945,0.78781044483185,-3.18813776969910,9.10357666015625,-0.84283649921417,-2.34295988082886,-0.18657408654690
464,1989278141,-19.23605728149414,-4.63831758499146,-47.54811477661133,0.78733968734741,-3.15895247459412,9.07996749877930,-0.98199862241745,-2.03292512893677,-0.24471841752529
465,1989286474,-19.23838233947754,-4.63789463043213,-47.54814147949219,0.79837346076965,-3.15778875350952,9.06929206848145,-0.81919443607330,-2.20008325576782,-0.18703514337540
466,1989294807,-19.23823928833008,-4.63773155212402,-47.54708480834961,0.81580901145935,-3.16941070556641,9.09208393096924,-0.53807824850082,-2.26616835594177,-0.07133565098047
467,1989303140,-19.23774719238281,-4.63746118545532,-47.54616928100586,0.79821008443832,-3.15378284454346,9.06299972534180,-0.46953451633453,-2.25418066978455,-0.08585891127586
468,1989311473,-19.23749732971191,-4.63768148422241,-47.54634094238281,0.79099804162979,-3.16119337081909,9.07661056518555,-0.53674626350403,-2.26219797134399,-0.22768491506577
469,1989319806,-19.23718452453613,-4.63729619979858,-47.54707336425781,0.81046593189240,-3.17611765861511,9.07153415679932,-0.50844252109528,-2.17662072181702,-0.26700276136398
470,1989328139,-19.23661613464355,-4.63751888275146,-47.54636383056641,0.80372238159180,-3.17428827285767,9.07239246368408,-0.48948803544044,-2.29662346839905,-0.12702098488808
471,1989336472,-19.23501205444336,-4.63805198669434,-47.54584884643555,0.78310704231262,-3.15278410911560,9.08151531219482,-0.34148895740509,-2.32951235771179,-0.16436655819416
472,1989344805,-19.23185920715332,-4.63798141479492,-47.54538345336914,0.79066878557205,-3.14657306671143,9.10546684265137,-0.18188667297363,-2.25359153747559,-0.14233829081059
473,1989353138,-19.22963905334473,-4.63810110092163,-47.54447555541992,0.81303435564041,-3.15093946456909,9.09668636322021,-0.26285326480865,-2.29800677299500,-0.10284115374088
474,1989361471,-19.22944068908691,-4.63762807846069,-47.54328536987305,0.81418275833130,-3.16721415519714,9.10107707977295,-0.52980482578278,-2.23430418968201,-0.04579824954271
475,1989369804,-19.23194885253906,-4.63661146163940,-47.54297637939453,0.78885114192963,-3.15874385833740,9.07561492919922,-0.83735495805740,-2.14547395706177,-0.12591956555843
476,1989378137,-19.23662185668945,-4.63604307174683,-47.54299926757812,0.79511165618896,-3.18913173675537,9.04593276977539,-1.12349152565002,-2.17859292030334,-0.17297293245792
477,1989386470,-19.24099922180176,-4.63452291488647,-47.54405212402344,0.80957484245300,-3.17474341392517,9.03344726562500,-1.07477331161499,-2.03392386436462,-0.26018938422203
478,1989394803,-19.24238967895508,-4.63344192504883,-47.54365539550781,0.82097339630127,-3.17611861228943,9.04162693023682,-0.72775161266327,-2.13576602935791,-0.11206227540970
479,1989403136,-19.23965835571289,-4.63150548934937,-47.54372406005859,0.79877978563309,-3.16357207298279,9.06008815765381,-0.21054899692535,-2.02688002586365,-0.13229751586914
480,1989411469,-19.23356056213379,-4.63179826736450,-47.54250335693359,0.81787437200546,-3.16035604476929,9.07809352874756,0.18002963066101,-2.32400488853455,-0.06877421587706
481,1989419802,-19.22788810729980,-4.63227701187134,-47.54098510742188,0.81702256202698,-3.13376927375793,9.07206153869629,0.15564489364624,-2.36339974403381,-0.04910248890519
482,1989428135,-19.22701263427734,-4.63197755813599,-47.54026412963867,0.79594767093658,-3.15353870391846,9.05820274353027,-0.45186072587967,-2.23630189895630,-0.10289237648249
483,1989436468,-19.22931480407715,-4.63116550445557,-47.54084014892578,0.79911607503891,-3.17759156227112,9.07846260070801,-0.82139730453491,-2.13522815704346,-0.23401165008545
484,1989444801,-19.23328399658203,-4.63177013397217,-47.54116821289062,0.79793351888657,-3.16621637344360,9.06487846374512,-1.04365217685699,-2.29705929756165,-0.25632166862488
485,1989453134,-19.23652839660645,-4.63128232955933,-47.54059600830078,0.79581582546234,-3.15976047515869,9.05693435668945,-0.92298340797424,-2.21719384193420,-0.11690337210894
486,1989461467,-19.23597145080566,-4.63208055496216,-47.54055023193359,0.80403792858124,-3.15049743652344,9.04024696350098,-0.49625024199486,-2.33750391006470,-0.22048735618591
487,1989469800,-19.23354911804199,-4.63333988189697,-47.53900909423828,0.77778255939484,-3.15474987030029,9.04305362701416,-0.23383235931396,-2.45153856277466,-0.07738060504198
488,1989478133,-19.22997856140137,-4.63326311111450,-47.53839111328125,0.80131381750107,-3.17350268363953,9.08654403686523,-0.13006909191608,-2.25902199745178,-0.12028446048498
489,1989486466,-19.23022079467773,-4.63334894180298,-47.53769302368164,0.80158150196075,-3.14862847328186,9.10300159454346,-0.56033700704575,-2.28589081764221,-0.12612447142601
490,1989494799,-19.23240280151367,-4.63213872909546,-47.53765106201172,0.81660211086273,-3.14883947372437,9.06581401824951,-0.82529062032700,-2.10828185081482,-0.13688246905804
491,1989503132,-19.23594474792480,-4.63156890869141,-47.53833389282227,0.82036423683167,-3.16083264350891,9.05024814605713,-0.97193217277527,-2.15769195556641,-0.25716692209244
492,1989511465,-19.23731040954590,-4.63073682785034,-47.53839111328125,0.79880863428116,-3.16629791259766,9.07445716857910,-0.72764915227890,-2.14503860473633,-0.16738903522491
493,1989519798,-19.23554611206055,-4.63115310668945,-47.53755569458008,0.80199700593948,-3.15699172019958,9.04201698303223,-0.31915333867073,-2.32833409309387,-0.12420341372490
494,1989528131,-19.23001861572266,-4.63191890716553,-47.53555679321289,0.79821664094925,-3.15445685386658,9.07122039794922,0.11814565211535,-2.40799403190613,0.00039702063077
495,1989536464,-19.22425651550293,-4.63253927230835,-47.53376770019531,0.81124687194824,-3.13640856742859,9.11212825775146,0.17180748283863,-2.38980817794800,-0.02177209965885
496,1989544797,-19.22130966186523,-4.63249444961548,-47.53353500366211,0.81110411882401,-3.15117621421814,9.08055114746094,-0.20980620384216,-2.24867367744446,-0.16790132224560
497,1989553130,-19.22385025024414,-4.63143587112427,-47.53272628784180,0.80974882841110,-3.14442038536072,9.07635879516602,-0.83484470844269,-2.15999722480774,-0.06815947592258
498,1989561463,-19.22984504699707,-4.62965869903564,-47.53343200683594,0.79413551092148,-3.17636299133301,9.10754585266113,-1.29082942008972,-2.01578903198242,-0.20921705663204
499,1989569796,-19.23602676391602,-4.62794685363770,-47.53389358520508,0.81801074743271,-3.15644717216492,9.04789352416992,-1.28565526008606,-2.03697204589844,-0.18465301394463
500,1989578129,-19.23872375488281,-4.62777709960938,-47.53368377685547,0.79351192712784,-3.17418265342712,9.07566070556641,-0.88443398475647,-2.23128175735474,-0.16154900193214
501,1989586462,-19.23709106445312,-4.62724685668945,-47.53345489501953,0.80381953716278,-3.17050671577454,9.07517051696777,-0.34097671508789,-2.19698429107666,-0.15363417565823
502,1989594795,-19.23192787170410,-4.62762975692749,-47.53213500976562,0.79988855123520,-3.16305112838745,9.08170700073242,0.06927370280027,-2.33988595008850,-0.06068012863398
503,1989603128,-19.22647666931152,-4.62875461578369,-47.53033828735352,0.79881876707077,-3.16487669944763,9.09230327606201,0.13261769711971,-2.44672298431396,-0.04193050414324
504,1989611461,-19.22418594360352,-4.62875366210938,-47.52956390380859,0.81270653009415,-3.14730119705200,9.13480567932129,-0.28060397505760,-2.27246952056885,-0.10742609947920
505,1989619794,-19.22377014160156,-4.62887716293335,-47.53007125854492,0.79411923885345,-3.14518356323242,9.09718036651611,-0.49496945738792,-2.24429345130920,-0.26400592923164
506,1989628127,-19.22535324096680,-4.62868309020996,-47.53037643432617,0.78528106212616,-3.17353439331055,9.05712985992432,-0.75592726469040,-2.20774221420288,-0.22297190129757
507,1989636460,-19.22899818420410,-4.62849187850952,-47.53028106689453,0.78367108106613,-3.14830160140991,9.10511779785156,-0.97446787357330,-2.23153758049011,-0.18206597864628
508,1989644793,-19.23190307617188,-4.62836790084839,-47.53049850463867,0.79748332500458,-3.16411638259888,9.05686664581299,-0.91617000102997,-2.22203493118286,-0.22058980166912
509,1989653126,-19.23391151428223,-4.62785053253174,-47.53049468994141,0.80673021078110,-3.17582678794861,9.07055091857910,-0.77915948629379,-2.18860840797424,-0.18170739710331
510,1989661459,-19.23473548889160,-4.62826251983643,-47.52991867065430,0.80140346288681,-3.17432785034180,9.03226852416992,-0.65656971931458,-2.31263279914856,-0.14331166446209
511,1989669792,-19.23463630676270,-4.62813091278076,-47.52920150756836,0.81021654605865,-3.17161297798157,9.05150985717773,-0.52053242921829,-2.26355552673340,-0.11498229950666
512,1989678125,-19.23396682739258,-4.62857103347778,-47.52982711791992,0.80472141504288,-3.15891790390015,9.05516815185547,-0.49000027775764,-2.26824283599854,-0.28337028622627
513,1989686458,-19.23302268981934,-4.62809038162231,-47.52935409545898,0.79483497142792,-3.17048096656799,9.06949043273926,-0.41966357827187,-2.21276259422302,-0.12947994470596
514,1989694791,-19.23068809509277,-4.62722873687744,-47.52879333496094,0.79771840572357,-3.15603113174438,9.08223342895508,-0.28001478314400,-2.16519689559937,-0.10027971863747
515,1989703124,-19.22939300537109,-4.62653923034668,-47.52852249145508,0.79415220022202,-3.15797138214111,9.06055545806885,-0.38039705157280,-2.18279433250427,-0.14223584532738
516,1989711457,-19.22959899902344,-4.62666368484497,-47.52796936035156,0.79747962951660,-3.16270518302917,9.09051418304443,-0.58292871713638,-2.27846288681030,-0.13611404597759
517,1989719790,-19.23046684265137,-4.62608098983765,-47.52692413330078,0.80549043416977,-3.17320752143860,9.06992149353027,-0.63139092922211,-2.22305917739868,-0.06027029082179
518,1989728123,-19.23273086547852,-4.62606477737427,-47.52597808837891,0.78958523273468,-3.15977931022644,9.08474731445312,-0.82600790262222,-2.27600407600403,-0.09116106480360
519,1989736456,-19.23459053039551,-4.62597274780273,-47.52603530883789,0.79618763923645,-3.15550994873047,9.04861354827881,-0.76335537433624,-2.23663496971130,-0.20529808104038
520,1989744789,-19.23661422729492,-4.62565326690674,-47.52606201171875,0.80651599168777,-3.16303062438965,9.07398414611816,-0.80723267793655,-2.20594930648804,-0.18490917980671
521,1989753122,-19.23697471618652,-4.62479162216187,-47.52638244628906,0.80131900310516,-3.17520713806152,9.05368804931641,-0.58618170022964,-2.14004373550415,-0.20255735516548
522,1989761455,-19.23617935180664,-4.62460136413574,-47.52571487426758,0.80841469764709,-3.17886781692505,9.06506538391113,-0.45969867706299,-2.24869918823242,-0.11247210204601
523,1989769788,-19.23512458801270,-4.62461471557617,-47.52504730224609,0.80999022722244,-3.17079353332520,9.09504318237305,-0.40654912590981,-2.27764368057251,-0.12594519555569
524,1989778121,-19.23354339599609,-4.62486600875854,-47.52441406250000,0.81282347440720,-3.16425466537476,9.09732913970947,-0.36794847249985,-2.29421567916870,-0.14146740734577
525,1989786454,-19.23297691345215,-4.62364912033081,-47.52412796020508,0.80733168125153,-3.15778136253357,9.07912158966064,-0.46781837940216,-2.12229299545288,-0.12028444558382
526,1989794787,-19.23245048522949,-4.62347745895386,-47.52387619018555,0.79392027854919,-3.17735528945923,9.05500221252441,-0.49786391854286,-2.23379182815552,-0.15724579989910
527,1989803120,-19.23309326171875,-4.62309312820435,-47.52372741699219,0.78997522592545,-3.17270731925964,9.09031200408936,-0.61448550224304,-2.21263456344604,-0.16910517215729
528,1989811453,-19.23352241516113,-4.62216901779175,-47.52311706542969,0.79594433307648,-3.15650534629822,9.07693481445312,-0.60795384645462,-2.16230249404907,-0.08550031483173
529,1989819786,-19.23367500305176,-4.62128257751465,-47.52303314208984,0.79217159748077,-3.18046283721924,9.11704826354980,-0.55669975280762,-2.15131378173828,-0.15634928643703
530,1989828119,-19.23342514038086,-4.62091302871704,-47.52223205566406,0.80509942770004,-3.17288780212402,9.07909202575684,-0.52537357807159,-2.23171687126160,-0.08788242936134
531,1989836452,-19.23484802246094,-4.62058639526367,-47.52164459228516,0.79410260915756,-3.15857028961182,9.07894897460938,-0.70382797718048,-2.23512387275696,-0.12130902707577
532,1989844785,-19.23638725280762,-4.61956357955933,-47.52194976806641,0.81660944223404,-3.16698074340820,9.08075332641602,-0.75100940465927,-2.11435246467590,-0.18813654780388
533,1989853118,-19.23686790466309,-4.61835384368896,-47.52148818969727,0.80580848455429,-3.18412160873413,9.06567096710205,-0.59102278947830,-2.13048958778381,-0.10140675306320
534,1989861451,-19.23633003234863,-4.61830949783325,-47.52112960815430,0.81944954395294,-3.16320109367371,9.07927989959717,-0.49499508738518,-2.25082516670227,-0.15578578412533
535,1989869784,-19.23356056213379,-4.61767244338989,-47.51982116699219,0.80576264858246,-3.15812253952026,9.06565093994141,-0.19428396224976,-2.22838711738586,-0.02761214412749
536,1989878117,-19.23025131225586,-4.61788940429688,-47.51866149902344,0.81153810024261,-3.15760278701782,9.06248569488525,-0.15417207777500,-2.31304216384888,-0.07253950834274
537,1989886450,-19.22843360900879,-4.61807727813721,-47.51734161376953,0.80496865510941,-3.13779282569885,9.09655094146729,-0.30795994400978,-2.32264757156372,-0.05845167115331
538,1989894783,-19.22922706604004,-4.61726617813110,-47.51663970947266,0.82380801439285,-3.14301347732544,9.08832073211670,-0.65055036544800,-2.17902874946594,-0.08639682084322
539,1989903116,-19.23170661926270,-4.61613464355469,-47.51599884033203,0.80420219898224,-3.15477371215820,9.06703567504883,-0.83059275150299,-2.14491033554077,-0.08206800371408
540,1989911449,-19.23547935485840,-4.61575746536255,-47.51581954956055,0.81814366579056,-3.17112398147583,9.05132484436035,-1.01478481292725,-2.20569324493408,-0.16444340348244
541,1989919782,-19.23746681213379,-4.61528968811035,-47.51627349853516,0.80629706382751,-3.16532588005066,9.06806945800781,-0.78105485439301,-2.17902851104736,-0.23385797441006
542,1989928115,-19.23573875427246,-4.61560535430908,-47.51567459106445,0.79773736000061,-3.16048479080200,9.05846118927002,-0.34986481070518,-2.30223298072815,-0.14428499341011
543,1989936448,-19.23251533508301,-4.61579751968384,-47.51510620117188,0.81349688768387,-3.15383124351501,9.05838871002197,-0.14538639783859,-2.29193592071533,-0.14338847994804
544,1989944781,-19.22886848449707,-4.61598062515259,-47.51523590087891,0.79335665702820,-3.16582536697388,9.07058238983154,-0.12655992805958,-2.25932908058167,-0.21946275234222
545,1989953114,-19.22894668579102,-4.61502170562744,-47.51511383056641,0.81253772974014,-3.17147445678711,9.09328556060791,-0.54806780815125,-2.14539694786072,-0.14927975833416
546,1989961447,-19.23140144348145,-4.61491918563843,-47.51498413085938,0.79437834024429,-3.15228009223938,9.09221076965332,-0.85689854621887,-2.23461174964905,-0.17812140285969
547,1989969780,-19.23602294921875,-4.61455202102661,-47.51525115966797,0.79912906885147,-3.16449904441833,9.09172725677490,-1.09590518474579,-2.19670248031616,-0.21710628271103
548,1989978113,-19.23837852478027,-4.61400461196899,-47.51413726806641,0.79995775222778,-3.16824483871460,9.04095745086670,-0.83369219303131,-2.22428917884827,-0.05127970501781
549,1989986446,-19.23710441589355,-4.61491346359253,-47.51343917846680,0.79195147752762,-3.17996478080750,9.04305171966553,-0.38034579157829,-2.37897348403931,-0.15783491730690
550,1989994779,-19.23347282409668,-4.61503076553345,-47.51228713989258,0.81122833490372,-3.15852808952332,9.07248687744141,-0.11487983167171,-2.30295038223267,-0.07297495752573
551,1990003112,-19.22886466979980,-4.61569166183472,-47.51121520996094,0.79388481378555,-3.15339350700378,9.07195568084717,0.02585756964982,-2.36498785018921,-0.10476221144199
552,1990011445,-19.22569274902344,-4.61601018905640,-47.51023864746094,0.78924012184143,-3.16270017623901,9.09087657928467,-0.17351080477238,-2.31862592697144,-0.10107376426458
553,1990019778,-19.22693824768066,-4.61400461196899,-47.50942993164062,0.79643911123276,-3.14224767684937,9.08924579620361,-0.68059581518173,-2.05203294754028,-0.03196656331420
554,1990028111,-19.23082160949707,-4.61337089538574,-47.50971603393555,0.78936648368835,-3.16094446182251,9.07456588745117,-1.03074252605438,-2.15887045860291,-0.19817736744881
555,1990036444,-19.23615646362305,-4.61247301101685,-47.51135635375977,0.80735516548157,-3.16737079620361,9.08172035217285,-1.19423806667328,-2.08220672607422,-0.35022345185280
556,1990044777,-19.23958206176758,-4.61205673217773,-47.51095199584961,0.82414734363556,-3.17510128021240,9.01909160614014,-0.97062593698502,-2.21199417114258,-0.13803511857986
557,1990053110,-19.23911094665527,-4.61179876327515,-47.50992202758789,0.80661129951477,-3.18003320693970,9.04269886016846,-0.47155809402466,-2.26071238517761,-0.07435812056065
558,1990061443,-19.23500061035156,-4.61194229125977,-47.50930023193359,0.79862165451050,-3.14965581893921,9.05322933197021,-0.06411241739988,-2.28145956993103,-0.13083750009537
559,1990069776,-19.23065376281738,-4.61186933517456,-47.50865173339844,0.79326725006104,-3.13783764839172,9.08047294616699,-0.01096289232373,-2.26493883132935,-0.12522798776627
560,1990078109,-19.22903823852539,-4.61173725128174,-47.50873184204102,0.80881941318512,-3.16588759422302,9.06313800811768,-0.36892181634903,-2.22410964965820,-0.20568230748177
561,1990086442,-19.23000144958496,-4.61149835586548,-47.50836181640625,0.80128836631775,-3.14583325386047,9.05285549163818,-0.65247142314911,-2.23681426048279,-0.14984326064587
562,1990094775,-19.23235511779785,-4.61092138290405,-47.50883483886719,0.81561785936356,-3.14957094192505,9.06751060485840,-0.84865081310272,-2.15715384483337,-0.22438068687916
563,1990103108,-19.23497009277344,-4.61122703552246,-47.50918197631836,0.81067615747452,-3.16425967216492,9.07791805267334,-0.85592520236969,-2.26929306983948,-0.25352969765663
564,1990111441,-19.23567199707031,-4.61082649230957,-47.50916290283203,0.79575091600418,-3.15919756889343,9.07253551483154,-0.64660573005676,-2.19647192955017,-0.17842875421047
565,1990119774,-19.23449325561523,-4.61076211929321,-47.50857162475586,0.80511397123337,-3.18011307716370,9.07551002502441,-0.39225637912750,-2.26565575599670,-0.13134980201721
566,1990128107,-19.23253822326660,-4.61130428314209,-47.50767135620117,0.80972862243652,-3.15857887268066,9.07877540588379,-0.31800076365471,-2.33683800697327,-0.11472617089748
567,1990136440,-19.23148918151855,-4.61062002182007,-47.50782775878906,0.80524957180023,-3.17353224754333,9.09506988525391,-0.41410529613495,-2.16509437561035,-0.19162008166313
568,1990144773,-19.23189353942871,-4.61060762405396,-47.50681304931641,0.78868484497070,-3.16771173477173,9.08645534515381,-0.60149908065796,-2.28148531913757,-0.08106905221939
569,1990153106,-19.23316574096680,-4.60945701599121,-47.50658798217773,0.81735181808472,-3.16216397285461,9.04839134216309,-0.68830573558807,-2.12764668464661,-0.12883961200714
570,1990161439,-19.23329162597656,-4.60916185379028,-47.50600051879883,0.79615974426270,-3.17237138748169,9.09427070617676,-0.57137680053711,-2.23048782348633,-0.11966972053051
571,1990169772,-19.23252868652344,-4.60922670364380,-47.50550842285156,0.78606563806534,-3.15483665466309,9.08663654327393,-0.44307503104210,-2.27508187294006,-0.14879307150841
572,1990178105,-19.22964096069336,-4.60931825637817,-47.50421524047852,0.80185043811798,-3.15937757492065,9.09889030456543,-0.20365877449512,-2.30312943458557,-0.05522428825498
573,1990186438,-19.22805595397949,-4.60993432998657,-47.50368499755859,0.80310630798340,-3.16977834701538,9.07661247253418,-0.34294897317886,-2.33919429779053,-0.16449458897114
574,1990194771,-19.22885322570801,-4.61034679412842,-47.50357055664062,0.79573035240173,-3.16031098365784,9.04966163635254,-0.65672338008881,-2.29347324371338,-0.19612820446491
575,1990203104,-19.23242568969727,-4.61019420623779,-47.50318145751953,0.80366164445877,-3.13733363151550,9.09276485443115,-0.96429914236069,-2.24716258049011,-0.15030433237553
576,1990211437,-19.23454856872559,-4.61008358001709,-47.50345230102539,0.81811654567719,-3.17259502410889,9.02789020538330,-0.81922012567520,-2.21970391273499,-0.21953959763050
577,1990219770,-19.23689270019531,-4.60980176925659,-47.50399398803711,0.79863446950912,-3.17530226707458,9.04672336578369,-0.82459914684296,-2.19631814956665,-0.25224900245667
578,1990228103,-19.23642539978027,-4.60961914062500,-47.50371932983398,0.80356085300446,-3.16580796241760,9.09147834777832,-0.50273060798645,-2.23228049278259,-0.15819349884987
579,1990236436,-19.23335266113281,-4.61009168624878,-47.50298309326172,0.79263091087341,-3.16186666488647,9.06329822540283,-0.16329073905945,-2.33099770545959,-0.13452596962452
580,1990244769,-19.23059463500977,-4.60937976837158,-47.50285339355469,0.80518889427185,-3.15116715431213,9.08420658111572,-0.22901685535908,-2.16752767562866,-0.15161065757275
581,1990253102,-19.22867584228516,-4.60904407501221,-47.50201797485352,0.81561535596848,-3.15661144256592,9.08647155761719,-0.30068549513817,-2.24457550048828,-0.09269791841507
582,1990261435,-19.22864913940430,-4.60881423950195,-47.50141143798828,0.80204874277115,-3.13907480239868,9.11526966094971,-0.55234533548355,-2.24170684814453,-0.11869636178017
583,1990269768,-19.23067665100098,-4.60790729522705,-47.50075149536133,0.78599953651428,-3.15291643142700,9.08687400817871,-0.77595764398575,-2.17193341255188,-0.09005964547396
584,1990278101,-19.23381805419922,-4.60747003555298,-47.50028228759766,0.80040210485458,-3.16933274269104,9.07269477844238,-0.93407428264618,-2.21073913574219,-0.12271781265736
585,1990286434,-19.23633193969727,-4.60689163208008,-47.49971008300781,0.79426968097687,-3.14562082290649,9.08575057983398,-0.83584368228912,-2.20646119117737,-0.11229280382395
586,1990294767,-19.23656845092773,-4.60716009140015,-47.49911499023438,0.80197834968567,-3.18384265899658,9.06388473510742,-0.58413261175156,-2.29623913764954,-0.14044284820557
587,1990303100,-19.23621368408203,-4.60697746276855,-47.49807357788086,0.79998397827148,-3.16972708702087,9.07262611389160,-0.48674735426903,-2.26862716674805,-0.07668902724981
588,1990311433,-19.23437881469727,-4.60752248764038,-47.49775314331055,0.81978988647461,-3.17417025566101,9.07359600067139,-0.33951666951180,-2.31706357002258,-0.18314176797867
589,1990319766,-19.23196601867676,-4.60808992385864,-47.49694442749023,0.79759621620178,-3.16283226013184,9.05026245117188,-0.24079941213131,-2.34370231628418,-0.13311716914177
590,1990328099,-19.23165702819824,-4.60875415802002,-47.49612808227539,0.81192576885223,-3.15400362014771,9.05853462219238,-0.51689523458481,-2.35261631011963,-0.13035084307194
591,1990336432,-19.23184204101562,-4.60882186889648,-47.49546813964844,0.78809708356857,-3.16275167465210,9.06679630279541,-0.55500924587250,-2.28189539909363,-0.12947994470596
592,1990344765,-19.23310279846191,-4.60838699340820,-47.49503326416016,0.79826855659485,-3.17047572135925,9.05513858795166,-0.70864343643188,-2.21048307418823,-0.13060697913170
593,1990353098,-19.23435592651367,-4.60838127136230,-47.49406433105469,0.80451327562332,-3.15319633483887,9.07292461395264,-0.67864912748337,-2.28614735603333,-0.09213440120220
594,1990361431,-19.23393058776855,-4.60881805419922,-47.49377059936523,0.81762242317200,-3.15585899353027,9.05489444732666,-0.50690567493439,-2.30405187606812,-0.17924842238426
595,1990369764,-19.23335456848145,-4.60870838165283,-47.49318695068359,0.81030911207199,-3.15936231613159,9.09109687805176,-0.46487277746201,-2.25930356979370,-0.13014593720436
596,1990378097,-19.23311042785645,-4.60977268218994,-47.49266052246094,0.80271774530411,-3.15997171401978,9.08268547058105,-0.52698731422424,-2.38225197792053,-0.18088772892952
597,1990386430,-19.23383331298828,-4.60874700546265,-47.49354934692383,0.81662774085999,-3.15778017044067,9.05711174011230,-0.63359367847443,-2.09721660614014,-0.26144447922707
598,1990394763,-19.23286056518555,-4.60851621627808,-47.49288177490234,0.79352796077728,-3.15982985496521,9.07170200347900,-0.43831083178520,-2.24037480354309,-0.11352229118347
599,1990403096,-19.23276519775391,-4.60869646072388,-47.49217224121094,0.79858207702637,-3.15442872047424,9.05742359161377,-0.52050685882568,-2.29687952995300,-0.12817361950874
600,1990411429,-19.23023414611816,-4.60723161697388,-47.49192810058594,0.81002330780029,-3.15722227096558,9.09093952178955,-0.25621917843819,-2.08476829528809,-0.10973137617111
601,1990419762,-19.22850799560547,-4.60738897323608,-47.49130630493164,0.77836531400681,-3.14143896102905,9.10669231414795,-0.32550573348999,-2.29147505760193,-0.13785581290722
602,1990428095,-19.22854804992676,-4.60738992691040,-47.49120330810547,0.79313290119171,-3.14979672431946,9.07962131500244,-0.56533175706863,-2.24647068977356,-0.18408948183060
603,1990436428,-19.23053169250488,-4.60672712326050,-47.49054336547852,0.81527119874954,-3.15544605255127,9.07551670074463,-0.76978456974030,-2.19893074035645,-0.10089446604252
604,1990444761,-19.23190689086914,-4.60637426376343,-47.48955535888672,0.79665631055832,-3.17257642745972,9.06728076934814,-0.71768516302109,-2.24265432357788,-0.06757035106421
605,1990453094,-19.23386764526367,-4.60562229156494,-47.48881912231445,0.80692595243454,-3.17193102836609,9.11120796203613,-0.76673650741577,-2.19129776954651,-0.08929122239351
606,1990461427,-19.23357009887695,-4.60460233688354,-47.48958206176758,0.79686337709427,-3.16588306427002,9.04174613952637,-0.53228938579559,-2.09924030303955,-0.23398603498936
607,1990469760,-19.23241996765137,-4.60505151748657,-47.48865127563477,0.82157146930695,-3.18815970420837,9.06621932983398,-0.39179527759552,-2.33640241622925,-0.11308684200048
608,1990478093,-19.23054122924805,-4.60554742813110,-47.48818969726562,0.80458581447601,-3.15205812454224,9.09275627136230,-0.33180677890778,-2.31578302383423,-0.16387988626957
609,1990486426,-19.23074531555176,-4.60542726516724,-47.48770523071289,0.81038010120392,-3.16039419174194,9.09633445739746,-0.55790358781815,-2.25405263900757,-0.14267128705978
610,1990494759,-19.23137092590332,-4.60526657104492,-47.48743057250977,0.80560386180878,-3.18540811538696,9.09013080596924,-0.63436222076416,-2.23471403121948,-0.16160021722317
611,1990503092,-19.23249435424805,-4.60576105117798,-47.48666381835938,0.78401798009872,-3.16274809837341,9.06386852264404,-0.66663610935211,-2.33389234542847,-0.13575544953346
612,1990511425,-19.23429107666016,-4.60609245300293,-47.48647308349609,0.80089783668518,-3.17917561531067,9.08987712860107,-0.77357548475266,-2.28563499450684,-0.19433519244194
613,1990519758,-19.23233222961426,-4.60573387145996,-47.48530197143555,0.80400013923645,-3.17384576797485,9.08612442016602,-0.29359036684036,-2.25384759902954,-0.05325199291110
614,1990528091,-19.22957229614258,-4.60625791549683,-47.48521804809570,0.80337774753571,-3.14697337150574,9.08808612823486,-0.22817161679268,-2.30471801757812,-0.20657882094383
615,1990536424,-19.22658920288086,-4.60614252090454,-47.48400497436523,0.79455441236496,-3.16152954101562,9.07487201690674,-0.16882343590260,-2.28358602523804,-0.05847729742527
616,1990544757,-19.22577285766602,-4.60655403137207,-47.48280715942383,0.79723471403122,-3.16370368003845,9.12339878082275,-0.45301333069801,-2.33504486083984,-0.07930167019367
617,1990553090,-19.22664070129395,-4.60667085647583,-47.48249053955078,0.81404656171799,-3.15667700767517,9.08143234252930,-0.63838356733322,-2.27500510215759,-0.17020657658577
618,1990561423,-19.22992324829102,-4.60573244094849,-47.48222732543945,0.82048571109772,-3.16363000869751,9.11028099060059,-0.95374608039856,-2.14726710319519,-0.12712346017361
619,1990569756,-19.23433494567871,-4.60568141937256,-47.48187637329102,0.81277257204056,-3.16965579986572,9.07174396514893,-1.06409227848053,-2.25635814666748,-0.16016581654549
620,1990578089,-19.23537063598633,-4.60554552078247,-47.48163223266602,0.81033784151077,-3.18705081939697,9.07528018951416,-0.68213266134262,-2.23730087280273,-0.15701526403427
621,1990586422,-19.23544120788574,-4.60506868362427,-47.48066329956055,0.79878455400467,-3.16970753669739,9.09191608428955,-0.53887230157852,-2.23312592506409,-0.07146371155977
622,1990594755,-19.23100852966309,-4.60550975799561,-47.48023223876953,0.80167400836945,-3.17207074165344,9.06781959533691,-0.02425667829812,-2.30722761154175,-0.16790129244328
623,1990603088,-19.22651481628418,-4.60619163513184,-47.47947311401367,0.77528923749924,-3.14441299438477,9.09717464447021,0.00687742279842,-2.35684251785278,-0.14315795898438
624,1990611421,-19.22295570373535,-4.60685014724731,-47.47808074951172,0.79887777566910,-3.13538169860840,9.12566184997559,-0.12048935145140,-2.37244153022766,-0.06506015360355
625,1990619754,-19.22250556945801,-4.60708951950073,-47.47714614868164,0.80107337236404,-3.15462207794189,9.11371898651123,-0.47450369596481,-2.31204319000244,-0.10611976683140
626,1990628087,-19.22566032409668,-4.60735130310059,-47.47766494750977,0.81812274456024,-3.15876364707947,9.09579277038574,-0.94659978151321,-2.25338673591614,-0.26856526732445
627,1990636420,-19.23086929321289,-4.60664415359497,-47.47794342041016,0.82583642005920,-3.16089630126953,9.09125804901123,-1.16578078269958,-2.15738463401794,-0.20378686487675
628,1990644753,-19.23404693603516,-4.60638999938965,-47.47825622558594,0.79332488775253,-3.16624927520752,9.06595611572266,-0.94449937343597,-2.20167160034180,-0.21720872819424
629,1990653086,-19.23471450805664,-4.60646200180054,-47.47784423828125,0.80218040943146,-3.16376066207886,9.08321857452393,-0.61463916301727,-2.27349376678467,-0.15622121095657
630,1990661419,-19.23293113708496,-4.60709047317505,-47.47672653198242,0.80325776338577,-3.15114188194275,9.05548095703125,-0.33618682622910,-2.35922455787659,-0.08885578811169
631,1990669752,-19.23017501831055,-4.60700750350952,-47.47531509399414,0.80186933279037,-3.16624689102173,9.06300544738770,-0.19479624927044,-2.29442071914673,-0.03936907649040
632,1990678085,-19.22844505310059,-4.60752916336060,-47.47439193725586,0.79386699199677,-3.15821671485901,9.08534717559814,-0.34369182586670,-2.33663320541382,-0.11285632103682
633,1990686418,-19.22724914550781,-4.60781097412109,-47.47401046752930,0.79470866918564,-3.15782976150513,9.08979606628418,-0.39171847701073,-2.29603433609009,-0.17025780677795
634,1990694751,-19.22574234008789,-4.60707807540894,-47.47443771362305,0.81199806928635,-3.15405082702637,9.05900192260742,-0.38421353697777,-2.13868618011475,-0.21813081204891
635,1990703084,-19.22651481628418,-4.60736703872681,-47.47488403320312,0.80295073986053,-3.13863730430603,9.05490684509277,-0.63582211732864,-2.26501536369324,-0.26218730211258
636,1990711417,-19.22820854187012,-4.60735177993774,-47.47427368164062,0.81012505292892,-3.16034007072449,9.08389282226562,-0.75720798969269,-2.26401662826538,-0.12533046305180
637,1990719750,-19.23073959350586,-4.60736322402954,-47.47425842285156,0.80864405632019,-3.16194057464600,9.05933189392090,-0.84322059154510,-2.25003123283386,-0.19948364794254
638,1990728083,-19.23163795471191,-4.60678243637085,-47.47426223754883,0.81635057926178,-3.14915323257446,9.04475212097168,-0.66824972629547,-2.17459726333618,-0.17371572554111
639,1990736416,-19.23330879211426,-4.60596990585327,-47.47507476806641,0.80078440904617,-3.15070557594299,9.04712963104248,-0.74742329120636,-2.12577652931213,-0.26180306077003
640,1990744749,-19.23324966430664,-4.60624504089355,-47.47546386718750,0.80231720209122,-3.16815757751465,9.05705547332764,-0.55708402395248,-2.25592279434204,-0.24740791320801
641,1990753082,-19.23198127746582,-4.60629463195801,-47.47478103637695,0.81171619892120,-3.16269946098328,9.08241844177246,-0.37983348965645,-2.28046107292175,-0.12507431209087
642,1990761415,-19.23003959655762,-4.60584592819214,-47.47424697875977,0.80336207151413,-3.16021442413330,9.07876110076904,-0.32256004214287,-2.21358227729797,-0.11580195277929
643,1990769748,-19.22823524475098,-4.60610008239746,-47.47388458251953,0.81142902374268,-3.15881991386414,9.08254051208496,-0.31897410750389,-2.29009222984314,-0.17171785235405
644,1990778081,-19.22673606872559,-4.60687589645386,-47.47267150878906,0.79892730712891,-3.14908385276794,9.06550502777100,-0.36828145384789,-2.37920379638672,-0.08852279186249
645,1990786414,-19.22665214538574,-4.60657167434692,-47.47228622436523,0.79835683107376,-3.14666748046875,9.06677722930908,-0.52406722307205,-2.22910451889038,-0.14448989927769
646,1990794747,-19.22784423828125,-4.60668945312500,-47.47121429443359,0.79830873012543,-3.16152858734131,9.09534645080566,-0.69363349676132,-2.29682850837708,-0.08022378385067
647,1990803080,-19.22973251342773,-4.60652065277100,-47.47121047973633,0.80347645282745,-3.16674637794495,9.08755683898926,-0.76496911048889,-2.23079514503479,-0.19187621772289
648,1990811413,-19.23046875000000,-4.60530948638916,-47.47130584716797,0.81154549121857,-3.16508364677429,9.08537483215332,-0.65049916505814,-2.10154581069946,-0.15698966383934
649,1990819746,-19.23090934753418,-4.60492277145386,-47.47070312500000,0.79673761129379,-3.17310976982117,9.07103443145752,-0.58613049983978,-2.22877120971680,-0.11682651937008
650,1990828079,-19.23097801208496,-4.60502386093140,-47.47087478637695,0.80991697311401,-3.15046095848083,9.07124042510986,-0.56932759284973,-2.24390935897827,-0.22458560764790
651,1990836412,-19.23108291625977,-4.60492753982544,-47.47045898437500,0.81949764490128,-3.15012764930725,9.05652999877930,-0.54668462276459,-2.25418066978455,-0.14904923737049
652,1990844745,-19.22950744628906,-4.60395908355713,-47.47006988525391,0.80173826217651,-3.16522574424744,9.06237506866455,-0.36707758903503,-2.14718985557556,-0.11400895565748
653,1990853078,-19.22842407226562,-4.60391426086426,-47.46979141235352,0.80709218978882,-3.15329957008362,9.08010768890381,-0.40626737475395,-2.25348901748657,-0.16761954128742
654,1990861411,-19.22772979736328,-4.60416078567505,-47.46852874755859,0.79995423555374,-3.15922307968140,9.07108497619629,-0.46676820516586,-2.31977868080139,-0.06413804739714
655,1990869744,-19.22695922851562,-4.60389232635498,-47.46745300292969,0.79174846410751,-3.15701651573181,9.11664104461670,-0.43528828024864,-2.26035356521606,-0.07087458670139
656,1990878077,-19.22644615173340,-4.60370206832886,-47.46703720092773,0.78988188505173,-3.16157603263855,9.09000301361084,-0.49530243873596,-2.23625063896179,-0.14377269148827
657,1990886410,-19.22729873657227,-4.60352420806885,-47.46573638916016,0.81887090206146,-3.15881109237671,9.09765434265137,-0.62880384922028,-2.28033280372620,-0.04733510687947
658,1990894743,-19.22926521301270,-4.60249805450439,-47.46578598022461,0.80513268709183,-3.15554237365723,9.11777210235596,-0.79701256752014,-2.12224197387695,-0.15868020057678
659,1990903076,-19.23118400573730,-4.60247087478638,-47.46524429321289,0.81839257478714,-3.17861676216125,9.08702373504639,-0.76353466510773,-2.26683425903320,-0.13931582868099
660,1990911409,-19.23205757141113,-4.60192441940308,-47.46461105346680,0.81290310621262,-3.18288397789001,9.07750892639160,-0.65869575738907,-2.20541143417358,-0.10063832998276
661,1990919742,-19.22970390319824,-4.60250234603882,-47.46420669555664,0.80719435214996,-3.16635751724243,9.04483699798584,-0.25250509381294,-2.32984519004822,-0.17763470113277
662,1990928075,-19.22713661193848,-4.60337400436401,-47.46279907226562,0.80041545629501,-3.16008090972900,9.03124046325684,-0.23882712423801,-2.39792776107788,-0.07259073853493
663,1990936408,-19.22391319274902,-4.60379600524902,-47.46193695068359,0.81347918510437,-3.14973020553589,9.08945751190186,-0.14349094033241,-2.32971692085266,-0.12051496654749
664,1990944741,-19.22221565246582,-4.60360670089722,-47.46146392822266,0.79059123992920,-3.16170907020569,9.10962581634521,-0.35111990571022,-2.24093818664551,-0.13368068635464
665,1990953074,-19.22333526611328,-4.60293340682983,-47.46168899536133,0.81885474920273,-3.16522097587585,9.08523845672607,-0.67654877901077,-2.16189265251160,-0.19976542890072
666,1990961407,-19.22632408142090,-4.60338640213013,-47.46197509765625,0.82007944583893,-3.14716243743896,9.10518550872803,-0.92065238952637,-2.28276634216309,-0.24379628896713
667,1990969740,-19.22899055480957,-4.60320711135864,-47.46287918090820,0.81447130441666,-3.17152500152588,9.09143638610840,-0.86778473854065,-2.19206643104553,-0.29592126607895
668,1990978073,-19.23158073425293,-4.60300683975220,-47.46259689331055,0.80005538463593,-3.14994716644287,9.06456279754639,-0.86763095855713,-2.23117899894714,-0.16300897300243
669,1990986406,-19.23056221008301,-4.60281085968018,-47.46273803710938,0.78684598207474,-3.17704534530640,9.07722187042236,-0.41820365190506,-2.22075438499451,-0.20926830172539
670,1990994739,-19.22719764709473,-4.60246133804321,-47.46220397949219,0.78969544172287,-3.15392279624939,9.08156681060791,-0.15212292969227,-2.22152256965637,-0.12737958133221
671,1991003072,-19.22428131103516,-4.60281705856323,-47.46102142333984,0.80609315633774,-3.15278792381287,9.07023811340332,-0.17742979526520,-2.33694005012512,-0.08032623678446
672,1991011405,-19.22282218933105,-4.60245227813721,-47.46046066284180,0.78270858526230,-3.16310596466064,9.07900333404541,-0.37845033407211,-2.22101044654846,-0.11946478486061
673,1991019738,-19.22413444519043,-4.60285520553589,-47.45996093750000,0.80795836448669,-3.16120147705078,9.11356735229492,-0.69099527597427,-2.31337523460388,-0.16049879789352
674,1991028071,-19.22719764709473,-4.60313558578491,-47.45961380004883,0.79954719543457,-3.16598677635193,9.06955814361572,-0.92516064643860,-2.28714632987976,-0.16769640147686
675,1991036404,-19.22946739196777,-4.60348415374756,-47.45917129516602,0.80642658472061,-3.16221284866333,9.07589054107666,-0.80618238449097,-2.30448698997498,-0.16398233175278
676,1991044737,-19.22885704040527,-4.60369729995728,-47.45882415771484,0.80331289768219,-3.17209744453430,9.08070373535156,-0.48377606272697,-2.28038406372070,-0.16802938282490
677,1991053070,-19.22727012634277,-4.60429096221924,-47.45836639404297,0.80085909366608,-3.15767669677734,9.08806991577148,-0.34361493587494,-2.33422517776489,-0.17240941524506
678,1991061403,-19.22558021545410,-4.60426712036133,-47.45824050903320,0.81423103809357,-3.17016196250916,9.08821868896484,-0.35639646649361,-2.24419116973877,-0.18070843815804
679,1991069736,-19.22371673583984,-4.60388565063477,-47.45778656005859,0.79773902893066,-3.14518928527832,9.07858562469482,-0.31108489632607,-2.22247028350830,-0.13567861914635
680,1991078069,-19.22478675842285,-4.60410976409912,-47.45682907104492,0.82140856981277,-3.15938568115234,9.09609889984131,-0.67918699979782,-2.30435895919800,-0.09177579730749
681,1991086402,-19.22722434997559,-4.60343503952026,-47.45566940307617,0.81575286388397,-3.14870023727417,9.05077838897705,-0.82014214992523,-2.21862816810608,-0.04321121051908
682,1991094735,-19.22887420654297,-4.60299301147461,-47.45552825927734,0.80489069223404,-3.14966940879822,9.08725166320801,-0.75503081083298,-2.19606184959412,-0.16262476146221
683,1991103068,-19.22742080688477,-4.60323190689087,-47.45495986938477,0.80553179979324,-3.16786003112793,9.07774829864502,-0.36008492112160,-2.29731512069702,-0.14712817966938
684,1991111401,-19.22520637512207,-4.60303688049316,-47.45318603515625,0.82253623008728,-3.15372514724731,9.08936214447021,-0.27727410197258,-2.29413890838623,0.01189781166613
685,1991119734,-19.22241020202637,-4.60375261306763,-47.45212554931641,0.80514383316040,-3.16048288345337,9.06856250762939,-0.19430959224701,-2.37062287330627,-0.11085841059685
686,1991128067,-19.22049331665039,-4.60428428649902,-47.45076751708984,0.80916678905487,-3.15487933158875,9.07841396331787,-0.31536248326302,-2.35333371162415,-0.07054160535336
687,1991136400,-19.22086715698242,-4.60373830795288,-47.45030593872070,0.81009888648987,-3.15465879440308,9.08285427093506,-0.57890731096268,-2.20512914657593,-0.12707221508026
688,1991144733,-19.22374534606934,-4.60245895385742,-47.45007705688477,0.79357475042343,-3.16742396354675,9.07272815704346,-0.90436190366745,-2.10349202156067,-0.12830170989037
689,1991153066,-19.22614097595215,-4.60178756713867,-47.44990158081055,0.79566061496735,-3.16560649871826,9.07668876647949,-0.82344633340836,-2.18007850646973,-0.15371100604534
690,1991161399,-19.22689819335938,-4.60101318359375,-47.44976043701172,0.80211818218231,-3.16446566581726,9.06507396697998,-0.64926964044571,-2.16027903556824,-0.14623165130615
691,1991169732,-19.22528266906738,-4.60091733932495,-47.44840240478516,0.79993301630020,-3.17385005950928,9.05768299102783,-0.33134576678276,-2.29129576683044,-0.04364665225148
692,1991178065,-19.22147750854492,-4.60102272033691,-47.44817352294922,0.79762864112854,-3.15399408340454,9.06772613525391,-0.10225202143192,-2.26135277748108,-0.17812138795853
693,1991186398,-19.21798324584961,-4.60133934020996,-47.44777297973633,0.82578867673874,-3.17278528213501,9.07312011718750,-0.11646792292595,-2.29982519149780,-0.16977114975452
694,1991194731,-19.21648788452148,-4.60177659988403,-47.44734954833984,0.82044899463654,-3.16451287269592,9.10678482055664,-0.37553030252457,-2.30830335617065,-0.16052438318729
695,1991203064,-19.21711921691895,-4.60063982009888,-47.44680404663086,0.79960584640503,-3.16732096672058,9.06799507141113,-0.60938829183578,-2.14129877090454,-0.09525933861732
696,1991211397,-19.21971511840820,-4.59974050521851,-47.44728088378906,0.81865775585175,-3.14935922622681,9.07701206207275,-0.87544327974319,-2.12088418006897,-0.22002626955509
697,1991219730,-19.22228050231934,-4.59894227981567,-47.44662857055664,0.78918063640594,-3.14671969413757,9.06590938568115,-0.83971142768860,-2.18397212028503,-0.09707794338465
698,1991228063,-19.22263908386230,-4.60002994537354,-47.44655227661133,0.80312871932983,-3.16798877716064,9.04866790771484,-0.60277986526489,-2.36460375785828,-0.23101480305195
699,1991236396,-19.22247123718262,-4.59923076629639,-47.44594955444336,0.81407576799393,-3.15742135047913,9.05232429504395,-0.51231032609940,-2.18143653869629,-0.10135553032160
700,1991244729,-19.21990776062012,-4.59905338287354,-47.44603347778320,0.80283093452454,-3.16309666633606,9.07482337951660,-0.25237703323364,-2.22075390815735,-0.19477061927319
701,1991253062,-19.21990013122559,-4.59911966323853,-47.44556045532227,0.80456113815308,-3.13749599456787,9.06203174591064,-0.53328841924667,-2.27523565292358,-0.14915168285370
702,1991261395,-19.21939468383789,-4.59939146041870,-47.44486618041992,0.78479671478271,-3.15209388732910,9.06309032440186,-0.49171647429466,-2.29485607147217,-0.13987933099270
703,1991269728,-19.22070312500000,-4.59870004653931,-47.44490814208984,0.80260276794434,-3.13814973831177,9.05043411254883,-0.69693768024445,-2.16901326179504,-0.17801892757416
704,1991278061,-19.22099304199219,-4.59912776947021,-47.44511413574219,0.80095183849335,-3.16766095161438,9.09799480438232,-0.59519797563553,-2.27853989601135,-0.23834043741226
705,1991286394,-19.22124481201172,-4.59864377975464,-47.44495391845703,0.80071985721588,-3.15017104148865,9.03941822052002,-0.56825178861618,-2.19977593421936,-0.16426408290863
