sep=,
DeviceTag:,Right Foot
FirmwareVersion:,2.4.0
AppVersion:,2022.0.0
StartTime: ,2023-06-27_13:37:17_000 CEST
© Xsens Technologies B. V. 2005-2023

PacketCounter,SampleTimeFine,Euler_X,Euler_Y,Euler_Z,Acc_X,Acc_Y,Acc_Z,Gyr_X,Gyr_Y,Gyr_Z
0,1963754162,-0.11360202729702,-0.26773878931999,-116.50390625000000,0.00000000000000,0.00000000000000,0.00000000000000,0.00000000000000,0.00000000000000,0.00000000000000
1,1963762495,-0.11415335536003,-0.26749923825264,-116.50372314453125,0.02101841568947,-0.00994502846152,9.50650596618652,-0.68989378213882,3.57291650772095,0.33235749602318
2,1963770828,-0.11359316110611,-0.26738929748535,-116.50294494628906,0.02208285219967,-0.03505052253604,9.47456645965576,-0.55979913473129,3.56300425529480,0.40930265188217
3,1963779161,-0.11361496895552,-0.26746273040771,-116.50313568115234,0.03045544773340,-0.02478368394077,9.52045536041260,-0.62808668613434,3.53575086593628,0.29355195164680
4,1963787494,-0.11384707689285,-0.26749345660210,-116.50296020507812,0.03193828091025,-0.01812173239887,9.52067756652832,-0.65444368124008,3.54737949371338,0.33827441930771
5,1963795827,-0.11462496966124,-0.26680460572243,-116.50282287597656,0.02274750173092,-0.03665927425027,9.53268909454346,-0.71911960840225,3.62417054176331,0.33051326870918
6,1963804160,-0.11463081091642,-0.26714104413986,-116.50313568115234,0.02492197416723,-0.01395798288286,9.50217056274414,-0.62667793035507,3.51085376739502,0.27736377716064
7,1963812493,-0.11475604027510,-0.26703709363937,-116.50290679931641,0.04508093371987,-0.00427794083953,9.48646163940430,-0.64138054847717,3.55537128448486,0.34324356913567
8,1963820826,-0.11545741558075,-0.26749712228775,-116.50237274169922,0.03867276012897,-0.03246185556054,9.51640701293945,-0.71010351181030,3.49551081657410,0.37897545099258
9,1963829159,-0.11656175553799,-0.26743516325951,-116.50263214111328,0.01185663323849,-0.01129574980587,9.50096511840820,-0.75805330276489,3.55204153060913,0.28532978892326
10,1963837492,-0.11634804308414,-0.26770821213722,-116.50326538085938,0.01954983733594,-0.02170382812619,9.51801204681396,-0.60155028104782,3.51876807212830,0.24073535203934
11,1963845825,-0.11642465740442,-0.26778769493103,-116.50338745117188,0.03599026426673,-0.02701858989894,9.49936008453369,-0.63497698307037,3.53418827056885,0.29870042204857
12,1963854158,-0.11610417068005,-0.26858848333359,-116.50378417968750,0.01469308417290,-0.02559915184975,9.51159572601318,-0.58774423599243,3.45537328720093,0.26860371232033
13,1963862491,-0.11554616689682,-0.26874753832817,-116.50385284423828,0.01500113867223,-0.00043356348760,9.51297760009766,-0.55908191204071,3.52368617057800,0.29106733202934
14,1963870824,-0.11474300175905,-0.26813644170761,-116.50404357910156,0.03476353362203,-0.03110701031983,9.52164840698242,-0.53016340732574,3.62483692169189,0.29373121261597
15,1963879157,-0.11418422311544,-0.26831632852554,-116.50420379638672,0.02603467553854,-0.02325707115233,9.48985195159912,-0.55782675743103,3.52168822288513,0.29593405127525
16,1963887490,-0.11379358172417,-0.26811134815216,-116.50427246093750,0.02459071762860,-0.02381896227598,9.51692581176758,-0.58093076944351,3.57570862770081,0.30602607131004
17,1963895823,-0.11411560326815,-0.26785278320312,-116.50411987304688,0.03679798543453,-0.02259209565818,9.51428985595703,-0.66438192129135,3.57307004928589,0.33776205778122
18,1963904156,-0.11356253921986,-0.26801356673241,-116.50456237792969,0.01407317072153,-0.03510998561978,9.51189613342285,-0.56028580665588,3.53162693977356,0.26409560441971
19,1963912489,-0.11405515670776,-0.26821121573448,-116.50405120849609,0.02572000212967,-0.04336949437857,9.47957229614258,-0.68474543094635,3.52145814895630,0.37152171134949
20,1963920822,-0.11400765180588,-0.26863932609558,-116.50432586669922,0.03682478889823,-0.02542454749346,9.53159236907959,-0.62124770879745,3.49958372116089,0.28320378065109
21,1963929155,-0.11512877792120,-0.26936832070351,-116.50453186035156,0.02598191611469,-0.01757998391986,9.50305652618408,-0.76040983200073,3.45529603958130,0.29252734780312
22,1963937488,-0.11549647152424,-0.26939895749092,-116.50456237792969,0.02845808118582,-0.04336684569716,9.53852081298828,-0.67032456398010,3.54725146293640,0.31148192286491
23,1963945821,-0.11542239785194,-0.26997679471970,-116.50491333007812,0.02023776248097,-0.01423208508641,9.52323341369629,-0.61627852916718,3.47499394416809,0.27459743618965
24,1963954154,-0.11572277545929,-0.26946014165878,-116.50536346435547,0.02075196616352,-0.02792114019394,9.52169799804688,-0.66407465934753,3.61226010322571,0.26027905941010
25,1963962487,-0.11548190563917,-0.26936474442482,-116.50491333007812,0.04275689646602,-0.02864520810544,9.51437664031982,-0.59670919179916,3.55409026145935,0.36634758114815
26,1963970820,-0.11577809602022,-0.26892817020416,-116.50413513183594,0.04023342207074,-0.02572287805378,9.51494884490967,-0.66118019819260,3.60398697853088,0.40820124745369
27,1963979153,-0.11614748835564,-0.26923739910126,-116.50435638427734,0.01708916760981,-0.02372534759343,9.51140117645264,-0.66981226205826,3.50683236122131,0.29770144820213
28,1963987486,-0.11658769845963,-0.26931309700012,-116.50418090820312,0.03614839166403,-0.02962378785014,9.51022815704346,-0.67921262979507,3.54179549217224,0.33732664585114
29,1963995819,-0.11681254953146,-0.26938325166702,-116.50338745117188,0.02449546568096,-0.02318512089550,9.51297092437744,-0.65229201316833,3.53598093986511,0.40876474976540
30,1964004152,-0.11638186126947,-0.26939839124680,-116.50254821777344,0.03205033391714,-0.02978466637433,9.50524044036865,-0.57611536979675,3.54827594757080,0.41737115383148
31,1964012485,-0.11664962768555,-0.26941215991974,-116.50231933593750,0.01790572330356,-0.01782142184675,9.48212146759033,-0.65700513124466,3.54343509674072,0.35223415493965
32,1964020818,-0.11676458269358,-0.26876184344292,-116.50228118896484,0.02773462980986,-0.02267605625093,9.52436637878418,-0.64089375734329,3.62811541557312,0.32162514328957
33,1964029151,-0.11648411303759,-0.26822239160538,-116.50170135498047,0.02766634710133,-0.02416753023863,9.51378726959229,-0.59092038869858,3.60987806320190,0.37638834118843
34,1964037484,-0.11699856817722,-0.26808029413223,-116.50235748291016,0.03972717374563,-0.01653476804495,9.49852466583252,-0.68879240751266,3.56700015068054,0.23743116855621
35,1964045817,-0.11766614019871,-0.26807370781898,-116.50261688232422,0.02944454178214,-0.03247788175941,9.49627876281738,-0.70633810758591,3.54481792449951,0.28443324565887
36,1964054150,-0.11787854135036,-0.26843947172165,-116.50326538085938,0.01791453175247,-0.03029549866915,9.49108791351318,-0.65134447813034,3.50767755508423,0.23773853480816
37,1964062483,-0.11800308525562,-0.26819702982903,-116.50318145751953,0.02496742084622,-0.02154932171106,9.51925182342529,-0.64091938734055,3.57322430610657,0.32710662484169
38,1964070816,-0.11828700453043,-0.26819992065430,-116.50251007080078,0.03248178586364,-0.02357973903418,9.49893188476562,-0.66010451316833,3.55032539367676,0.39641872048378
39,1964079149,-0.11834687739611,-0.26835381984711,-116.50218200683594,0.03756510838866,-0.03161019086838,9.49871826171875,-0.63274848461151,3.52663230895996,0.35395029187202
40,1964087482,-0.11781179904938,-0.26790890097618,-116.50233459472656,0.03003419376910,-0.03544265404344,9.53505325317383,-0.56348747014999,3.60380768775940,0.29793196916580
41,1964095815,-0.11847370117903,-0.26772442460060,-116.50125122070312,0.02989421226084,-0.00961368996650,9.46920394897461,-0.70362287759781,3.56628203392029,0.44116669893265
42,1964104148,-0.11901057511568,-0.26771453022957,-116.50048828125000,0.02614112198353,-0.04381784051657,9.51834964752197,-0.69086718559265,3.55145239830017,0.40845742821693
43,1964112481,-0.11889149248600,-0.26758113503456,-116.49967956542969,0.01761810481548,-0.03191209584475,9.51906394958496,-0.61064338684082,3.56011009216309,0.41322168707848
44,1964120814,-0.11877810955048,-0.26726636290550,-116.49943542480469,0.02369309216738,-0.01095850113779,9.51193523406982,-0.61287176609039,3.58767056465149,0.34536954760551
45,1964129147,-0.11912631988525,-0.26792690157890,-116.49948883056641,0.00960609130561,-0.02894675172865,9.48100090026855,-0.66837793588638,3.46479940414429,0.31394088268280
46,1964137480,-0.11956315487623,-0.26799893379211,-116.49953460693359,0.01596331968904,-0.03722812607884,9.52927875518799,-0.67926394939423,3.54192376136780,0.31184053421021
47,1964145813,-0.11922082304955,-0.26793119311333,-116.49853515625000,0.02233368530869,-0.02081789262593,9.51016712188721,-0.58298003673553,3.55163168907166,0.43074181675911
48,1964154146,-0.11929589509964,-0.26813855767250,-116.49739074707031,0.01609881967306,-0.02979995682836,9.49923706054688,-0.63638561964035,3.52673435211182,0.45402508974075
49,1964162479,-0.11884839087725,-0.26813548803329,-116.49670410156250,0.03157817944884,-0.02956815809011,9.50765800476074,-0.57042902708054,3.54458785057068,0.38942608237267
50,1964170812,-0.11932835727930,-0.26856595277786,-116.49610137939453,0.02137116529047,-0.01085836626589,9.50050354003906,-0.68482214212418,3.49853277206421,0.38873443007469
51,1964179145,-0.11928369104862,-0.26769599318504,-116.49665069580078,0.03243298456073,-0.02580856718123,9.50419044494629,-0.62058156728745,3.64988708496094,0.25226175785065
52,1964187478,-0.11886470019817,-0.26808950304985,-116.49622344970703,0.02260349318385,-0.00765594281256,9.51511764526367,-0.57534694671631,3.50273394584656,0.36693674325943
53,1964195811,-0.11903657764196,-0.26783052086830,-116.49642181396484,0.02065563574433,-0.01834726519883,9.50436496734619,-0.64611917734146,3.57491517066956,0.28612384200096
54,1964204144,-0.11894993484020,-0.26798722147942,-116.49537658691406,0.00583940232173,-0.01266329362988,9.49637222290039,-0.61581742763519,3.53178071975708,0.44065451622009
55,1964212477,-0.11924140155315,-0.26812362670898,-116.49583435058594,0.04172112792730,-0.03179881721735,9.48439884185791,-0.66148763895035,3.52781057357788,0.25436213612556
56,1964220810,-0.11962534487247,-0.26916387677193,-116.49609375000000,0.01255091186613,-0.02968995831907,9.51002120971680,-0.67280918359756,3.42612195014954,0.28427961468697
57,1964229143,-0.11999341845512,-0.26899427175522,-116.49613189697266,0.04412270337343,-0.04387728497386,9.51818943023682,-0.66994035243988,3.56487417221069,0.31378719210625
58,1964237476,-0.12016747891903,-0.26845034956932,-116.49526977539062,0.02487238869071,-0.03985301032662,9.48805141448975,-0.64783519506454,3.61579513549805,0.41957396268845
59,1964245809,-0.11928621679544,-0.26852318644524,-116.49501037597656,0.01848827302456,-0.03731619939208,9.51078796386719,-0.51886761188507,3.53413724899292,0.34129688143730
60,1964254142,-0.11991283297539,-0.26907396316528,-116.49472808837891,0.02406866103411,-0.03728833422065,9.51997089385986,-0.70190697908401,3.48475289344788,0.34916046261787
61,1964262475,-0.12090621888638,-0.26927638053894,-116.49469757080078,0.03621455654502,-0.04211229458451,9.53866004943848,-0.74450343847275,3.52015161514282,0.31711706519127
62,1964270808,-0.12118446081877,-0.26937842369080,-116.49492645263672,0.02578306943178,-0.02012202329934,9.50085449218750,-0.66010457277298,3.53938817977905,0.28894138336182
63,1964279141,-0.12101919949055,-0.26938351988792,-116.49491882324219,0.01633719354868,-0.02308110892773,9.52553653717041,-0.60628896951675,3.54381942749023,0.31873077154160
64,1964287474,-0.12080553174019,-0.26917198300362,-116.49485015869141,0.01462535280734,-0.01927269808948,9.48507308959961,-0.60198569297791,3.57578539848328,0.32329007983208
65,1964295807,-0.12105227261782,-0.26925885677338,-116.49465942382812,0.01963371224701,-0.02881640195847,9.48917770385742,-0.65393149852753,3.53221607208252,0.33824878931046
66,1964304140,-0.12098104506731,-0.26937907934189,-116.49388885498047,0.01830540597439,-0.01260737422854,9.49631786346436,-0.61786657571793,3.53636550903320,0.40896973013878
67,1964312473,-0.12109731882811,-0.26945307850838,-116.49414825439453,0.02089846879244,-0.01134308055043,9.52508735656738,-0.63899838924408,3.53326630592346,0.28440770506859
68,1964320806,-0.12100608646870,-0.27001214027405,-116.49378204345703,0.03468111157417,-0.02913577854633,9.51356697082520,-0.61712378263474,3.48370289802551,0.35863772034645
69,1964329139,-0.12116146087646,-0.26996880769730,-116.49308776855469,0.03202107921243,-0.02905081026256,9.52671337127686,-0.64319908618927,3.54876255989075,0.40074753761292
70,1964337472,-0.12097312510014,-0.27034917473793,-116.49316406250000,0.03464639186859,-0.03768584132195,9.49131393432617,-0.60400938987732,3.50488567352295,0.30448925495148
71,1964345805,-0.12155415862799,-0.27044081687927,-116.49263763427734,0.03547395765781,-0.01533482503146,9.50714492797852,-0.69511920213699,3.53257465362549,0.38601934909821
72,1964354138,-0.12217999994755,-0.27058687806129,-116.49248504638672,0.01953138411045,-0.01030355878174,9.51795673370361,-0.70134341716766,3.53382968902588,0.33525192737579
73,1964362471,-0.12269884347916,-0.27096763253212,-116.49219512939453,0.02933614701033,-0.02332831732929,9.49782848358154,-0.68761420249939,3.49753427505493,0.35871458053589
74,1964370804,-0.12263205647469,-0.27059358358383,-116.49234771728516,0.01664046198130,-0.02136839553714,9.51548671722412,-0.61904484033585,3.59617447853088,0.29790636897087
75,1964379137,-0.12258041650057,-0.27068370580673,-116.49182891845703,0.01641580089927,-0.03939688578248,9.50447082519531,-0.61871188879013,3.53321504592896,0.37405753135681
76,1964387470,-0.12327472120523,-0.27089428901672,-116.49288177490234,0.02607845701277,-0.03261464461684,9.50519466400146,-0.71030843257904,3.52596616744995,0.18791885674000
77,1964395803,-0.12419051676989,-0.27101123332977,-116.49256896972656,0.03015029244125,-0.02625835128129,9.50250720977783,-0.73482125997543,3.53009009361267,0.35784369707108
78,1964404136,-0.12507927417755,-0.27118614315987,-116.49182891845703,0.02429342456162,-0.03747193515301,9.48757076263428,-0.73448818922043,3.52993631362915,0.40482023358345
79,1964412469,-0.12535072863102,-0.27105483412743,-116.49060058593750,0.03526141494513,-0.03514749556780,9.50425338745117,-0.65567314624786,3.55903387069702,0.46532100439072
80,1964420802,-0.12545730173588,-0.27184578776360,-116.49048614501953,0.03516329824924,-0.03246679157019,9.50170707702637,-0.63997167348862,3.45650005340576,0.32946309447289
81,1964429135,-0.12533788383007,-0.27193486690521,-116.49084472656250,0.03116565570235,-0.04016652703285,9.48167800903320,-0.61177045106888,3.53342008590698,0.27513530850410
82,1964437468,-0.12581469118595,-0.27174475789070,-116.49073791503906,0.03009475395083,-0.01754516363144,9.50242137908936,-0.68418169021606,3.57353115081787,0.32825917005539
83,1964445801,-0.12610131502151,-0.27156689763069,-116.49095153808594,0.03477925434709,-0.01438699197024,9.50575637817383,-0.65869575738907,3.56372165679932,0.29111859202385
84,1964454134,-0.12567952275276,-0.27127799391747,-116.49170684814453,0.00736733153462,-0.00446673342958,9.50924015045166,-0.57706308364868,3.58656954765320,0.22703178226948
85,1964462467,-0.12555713951588,-0.27079844474792,-116.49229431152344,0.01034456491470,-0.01664851047099,9.47413444519043,-0.61120682954788,3.60047745704651,0.24744631350040
86,1964470800,-0.12535977363586,-0.27111405134201,-116.49256896972656,0.01435329485685,-0.02084513753653,9.47630310058594,-0.60329210758209,3.51415801048279,0.28235852718353
87,1964479133,-0.12587593495846,-0.27078148722649,-116.49186706542969,0.03124253824353,-0.01863014884293,9.48833847045898,-0.68763959407806,3.58357191085815,0.40410292148590
88,1964487466,-0.12529096007347,-0.27046987414360,-116.49200439453125,0.01364528387785,-0.02262893877923,9.50043773651123,-0.55598258972168,3.58841323852539,0.29962253570557
89,1964495799,-0.12476290762424,-0.26938119530678,-116.49125671386719,0.05324062705040,-0.01791084557772,9.51396465301514,-0.56166893243790,3.67255616188049,0.40533244609833
90,1964504132,-0.12416519969702,-0.26957583427429,-116.49125671386719,0.05103965848684,-0.01455804519355,9.52039527893066,-0.55534225702286,3.52814340591431,0.31675848364830
91,1964512465,-0.12339856475592,-0.26946368813515,-116.49095153808594,0.01741178520024,-0.03862313553691,9.53733158111572,-0.53333967924118,3.55629348754883,0.35628125071526
92,1964520798,-0.12368557602167,-0.26994156837463,-116.49066925048828,0.03244280815125,-0.02229322493076,9.54104709625244,-0.66059112548828,3.49338483810425,0.34921166300774
93,1964529131,-0.12299040704966,-0.27061966061592,-116.49061584472656,0.02153702452779,-0.01893273368478,9.52331352233887,-0.54289376735687,3.46246862411499,0.32644063234329
94,1964537464,-0.12336347997189,-0.27154523134232,-116.49077606201172,0.03611138835549,-0.01003792975098,9.52588558197021,-0.67183583974838,3.44069623947144,0.29642075300217
95,1964545797,-0.12344688922167,-0.27170374989510,-116.49003601074219,0.02911223284900,-0.03388576209545,9.51253604888916,-0.63459271192551,3.52482628822327,0.39950525760651
96,1964554130,-0.12333533167839,-0.27201530337334,-116.48995971679688,0.02878017723560,-0.03546516597271,9.50044059753418,-0.61335849761963,3.51210904121399,0.32656872272491
97,1964562463,-0.12300441414118,-0.27243706583977,-116.48965454101562,0.01538706570864,-0.03374196588993,9.48599529266357,-0.58538776636124,3.49274444580078,0.35477000474930
98,1964570796,-0.12304792553186,-0.27192848920822,-116.48946380615234,0.01925230771303,-0.02705750800669,9.51377773284912,-0.63108342885971,3.61266946792603,0.33860731124878
99,1964579129,-0.12314620614052,-0.27233219146729,-116.48977661132812,0.02224266342819,-0.03820931911469,9.52297687530518,-0.63756400346756,3.49481940269470,0.28369048237801
100,1964587462,-0.12310317158699,-0.27210646867752,-116.48911285400391,0.02725807763636,-0.03084785677493,9.47768688201904,-0.62186235189438,3.57901287078857,0.39652115106583
101,1964595795,-0.12290497124195,-0.27252507209778,-116.48790740966797,0.02365840785205,-0.02335693500936,9.52074432373047,-0.60080748796463,3.49230909347534,0.46209368109703
102,1964604128,-0.12331542372704,-0.27282822132111,-116.48752593994141,0.02037732303143,-0.01772373914719,9.47933006286621,-0.67603659629822,3.51359438896179,0.36176267266273
103,1964612461,-0.12363400310278,-0.27319109439850,-116.48712921142578,0.01797822676599,-0.02141201309860,9.52068710327148,-0.66407465934753,3.50050520896912,0.37807890772820
104,1964620794,-0.12363972514868,-0.27350208163261,-116.48680114746094,0.03304654732347,-0.02408562414348,9.51590538024902,-0.62716454267502,3.51308178901672,0.35466751456261
105,1964629127,-0.12407520413399,-0.27339872717857,-116.48666381835938,0.01988507062197,-0.02971833012998,9.50190353393555,-0.67667686939240,3.55729222297668,0.33520072698593
106,1964637460,-0.12334912270308,-0.27303260564804,-116.48602294921875,0.01931178569794,-0.02251777239144,9.51144027709961,-0.53979438543320,3.59474015235901,0.39524042606354
107,1964645793,-0.12327259033918,-0.27280077338219,-116.48590087890625,0.01719871535897,-0.00964666623622,9.49508666992188,-0.61566382646561,3.57035565376282,0.33010348677635
108,1964654126,-0.12308066338301,-0.27294334769249,-116.48517608642578,0.00702395476401,-0.02793582715094,9.51077079772949,-0.60347139835358,3.53403472900391,0.40254050493240
109,1964662459,-0.12316723912954,-0.27317169308662,-116.48494720458984,0.02871039509773,-0.02880999818444,9.50293636322021,-0.63548922538757,3.51677083969116,0.34621486067772
110,1964670792,-0.12292319536209,-0.27345222234726,-116.48476409912109,0.01909076049924,-0.02464692667127,9.49665355682373,-0.59857904911041,3.51802539825439,0.33832561969757
111,1964679125,-0.12280197441578,-0.27334046363831,-116.48457336425781,0.02484934404492,-0.03589785471559,9.50275611877441,-0.61046403646469,3.55639576911926,0.33783894777298
112,1964687458,-0.12245978415012,-0.27321344614029,-116.48424530029297,0.03651936724782,-0.02777766063809,9.49475574493408,-0.58523410558701,3.56520724296570,0.35400155186653
113,1964695791,-0.12027105689049,-0.28124001622200,-116.48968505859375,0.02199763432145,-0.03646618500352,9.54575061798096,-0.55518859624863,3.53262591362000,0.33701932430267
114,1964704124,-0.12036018073559,-0.28096830844879,-116.48977661132812,0.02757189422846,-0.03474175930023,9.49679851531982,-0.63766634464264,3.58469939231873,0.30402815341949
115,1964712457,-0.12068009376526,-0.28068572282791,-116.48886108398438,0.01286910474300,-0.01985563710332,9.48794174194336,-0.66489428281784,3.57704043388367,0.42907685041428
116,1964720790,-0.12151382863522,-0.28094071149826,-116.48941040039062,0.04337514936924,-0.00869714375585,9.49549388885498,-0.72608679533005,3.52191925048828,0.24939304590225
117,1964729123,-0.12155114114285,-0.28053551912308,-116.48889160156250,0.03058345615864,-0.02509384229779,9.51417446136475,-0.63069927692413,3.59192228317261,0.38450807332993
118,1964737456,-0.12146114557981,-0.28074768185616,-116.48853302001953,0.03174784034491,-0.03461857512593,9.49204158782959,-0.61553573608398,3.52555632591248,0.36009776592255
119,1964745789,-0.12179215997458,-0.28043544292450,-116.48851013183594,0.01627521961927,-0.02573748864233,9.50403499603271,-0.66561150550842,3.58254790306091,0.32175317406654
120,1964754122,-0.12173348665237,-0.27977508306503,-116.48828887939453,0.02081945724785,-0.02778470329940,9.51199817657471,-0.61945462226868,3.63013887405396,0.34232142567635
121,1964762455,-0.12184403836727,-0.28073477745056,-116.48807525634766,0.01934668049216,-0.01554763503373,9.51546573638916,-0.63794821500778,3.43060445785522,0.34785413742065
122,1964770788,-0.12182930856943,-0.28073921799660,-116.48728179931641,0.01334598939866,-0.03648497536778,9.51749515533447,-0.62488490343094,3.55152916908264,0.41147989034653
123,1964779121,-0.12171974778175,-0.28091627359390,-116.48676300048828,0.01253213081509,-0.01584834791720,9.50815391540527,-0.61264127492905,3.52197051048279,0.38138318061829
124,1964787454,-0.12130289524794,-0.28041934967041,-116.48598480224609,0.02866290323436,-0.01424377411604,9.48280906677246,-0.57642275094986,3.61156845092773,0.41104441881180
125,1964795787,-0.12188062816858,-0.28055003285408,-116.48585510253906,0.00676640216261,-0.02999242767692,9.51326751708984,-0.69478619098663,3.52952647209167,0.32451954483986
126,1964804120,-0.12251859903336,-0.28076919913292,-116.48607635498047,0.02846594341099,-0.02733828872442,9.50543212890625,-0.70367419719696,3.52478742599487,0.28970980644226
127,1964812453,-0.12300976365805,-0.28143081068993,-116.48585510253906,0.03357610106468,-0.03731139749289,9.50573348999023,-0.68410509824753,3.46441531181335,0.34291061758995
128,1964820786,-0.12295250594616,-0.28108084201813,-116.48605346679688,0.01838739030063,-0.03322882950306,9.49992942810059,-0.62081205844879,3.59335660934448,0.29362872242928
129,1964829119,-0.12311998754740,-0.28202602267265,-116.48561096191406,0.00679545756429,-0.03066425025463,9.49853229522705,-0.64560681581497,3.43160343170166,0.37451854348183
130,1964837452,-0.12296345829964,-0.28232634067535,-116.48554229736328,0.02280174568295,-0.03501030057669,9.49580955505371,-0.60767209529877,3.51525926589966,0.32369989156723
131,1964845785,-0.12392348796129,-0.28191471099854,-116.48520660400391,0.02435767650604,-0.02658994682133,9.49641227722168,-0.74114781618118,3.59333133697510,0.36714160442352
132,1964854118,-0.12330693751574,-0.28152123093605,-116.48548889160156,0.03463562577963,-0.01974335126579,9.49926948547363,-0.55290883779526,3.59894061088562,0.28118023276329
133,1964862451,-0.12342509627342,-0.28126236796379,-116.48506927490234,0.02964693494141,-0.02951635420322,9.53190612792969,-0.63933122158051,3.57460737228394,0.36509245634079
134,1964870784,-0.12279754132032,-0.28117808699608,-116.48536682128906,0.02607881650329,-0.00226049730554,9.51135444641113,-0.55124396085739,3.56169795989990,0.28038623929024
135,1964879117,-0.12189602851868,-0.28150874376297,-116.48448181152344,0.02360934764147,-0.02093230932951,9.51754760742188,-0.51779168844223,3.50442433357239,0.42610558867455
136,1964887450,-0.12223543971777,-0.28097406029701,-116.48469543457031,0.03123598545790,-0.03236266598105,9.49099826812744,-0.66794234514236,3.61669111251831,0.29083678126335
137,1964895783,-0.12175226211548,-0.28128263354301,-116.48398590087891,0.01520760450512,-0.02324925549328,9.50701045989990,-0.56676620244980,3.50672984123230,0.40763774514198
138,1964904116,-0.12247107923031,-0.28129741549492,-116.48381042480469,0.03416599333286,-0.02191539853811,9.50667095184326,-0.71376627683640,3.55073523521423,0.33584105968475
139,1964912449,-0.12264086306095,-0.28133144974709,-116.48374176025391,0.02307073399425,-0.01354643702507,9.51066589355469,-0.64417237043381,3.53892660140991,0.33202454447746
140,1964920782,-0.12235952168703,-0.28084236383438,-116.48363494873047,0.01409288309515,-0.07656533271074,9.54464721679688,-0.59419894218445,3.61064624786377,0.33120483160019
141,1964929115,-0.12059067189693,-0.28158402442932,-116.48367309570312,0.01848174817860,-0.05051947757602,9.50084400177002,-0.41287586092949,3.45486068725586,0.32439145445824
142,1964937448,-0.11999034881592,-0.28156095743179,-116.48360443115234,0.02834500558674,0.01289296988398,9.52415370941162,-0.55513727664948,3.55488419532776,0.32503181695938
143,1964945781,-0.12372737377882,-0.28156125545502,-116.48360443115234,-0.01835898309946,-0.01850466802716,9.54804611206055,-1.07451701164246,3.54384422302246,0.32231664657593
144,1964954114,-0.12141840904951,-0.28375509381294,-116.48345184326172,0.05889617279172,-0.19865164160728,9.45156192779541,-0.34878906607628,3.28895735740662,0.33371508121490
145,1964962447,-0.12045715004206,-0.28006699681282,-116.48448944091797,0.03948421031237,0.30111354589462,9.56485652923584,-0.51110643148422,3.98732948303223,0.20669406652451
146,1964970780,-0.12666022777557,-0.28568857908249,-116.48196411132812,-0.03063517250121,-0.49795559048653,9.43985462188721,-1.36872231960297,2.87628650665283,0.61580461263657
147,1964979113,-0.11693680286407,-0.27718657255173,-116.48458862304688,0.07016510516405,0.62785565853119,9.58710479736328,0.53929495811462,4.56464910507202,0.01743048802018
148,1964987446,-0.12355478852987,-0.28820168972015,-116.47867584228516,0.15848203003407,-0.93311053514481,9.28016376495361,-1.41749179363251,2.22819519042969,1.02422356605530
149,1964995779,-0.12913274765015,-0.27779942750931,-116.48476409912109,-0.46404749155045,0.81450599431992,9.89724826812744,-1.29882109165192,4.79410123825073,-0.40109327435493
150,1965004112,-0.11488462239504,-0.27797532081604,-116.48300170898438,0.64380645751953,-0.03018653951585,9.14159107208252,1.08341801166534,3.53019213676453,0.52615475654602
151,1965012445,-0.10992657393217,-0.28819364309311,-116.47785186767578,0.00631604529917,-0.63888818025589,9.49896907806396,-0.02727916277945,2.31735825538635,0.94289845228195
152,1965020778,-0.12511987984180,-0.28581884503365,-116.47966003417969,-0.33638125658035,-0.49441769719124,9.60286712646484,-2.45220446586609,3.83628249168396,0.10031814873219
153,1965029111,-0.13524724543095,-0.28157827258110,-116.48472595214844,-0.02440256997943,0.28416150808334,9.61583900451660,-1.84261131286621,4.05541229248047,-0.27845236659050
154,1965037444,-0.13749666512012,-0.28227338194847,-116.48652648925781,-0.03068143688142,0.29909783601761,9.58763217926025,-0.89754843711853,3.46800136566162,0.10106097161770
155,1965045777,-0.13762696087360,-0.28148147463799,-116.48714447021484,-0.06380312889814,0.16554243862629,9.61827659606934,-0.64204645156860,3.64010286331177,0.25011017918587
156,1965054110,-0.13781628012657,-0.28266423940659,-116.48702239990234,0.03763377293944,-0.05894370377064,9.53704929351807,-0.65060162544250,3.40998506546021,0.33107683062553
157,1965062443,-0.13838420808315,-0.28474986553192,-116.48495483398438,0.09869697690010,-0.33220687508583,9.47813987731934,-0.69191735982895,3.29379868507385,0.57546222209930
158,1965070776,-0.13574874401093,-0.28815269470215,-116.48351287841797,0.27064564824104,-0.50503259897232,9.32077598571777,-0.30926626920700,3.14252090454102,0.48886048793793
159,1965079109,-0.12558452785015,-0.28976863622665,-116.48084259033203,0.35962733626366,-0.19252191483974,9.24558258056641,0.59620976448059,3.34871554374695,0.63632166385651
160,1965087442,-0.10890424251556,-0.28652796149254,-116.48017883300781,0.09755389392376,0.63047206401825,9.39300155639648,1.37449836730957,3.94053244590759,0.39905700087547
161,1965095775,-0.10764049738646,-0.28146335482597,-116.48133850097656,-0.55334407091141,1.07074701786041,9.83340358734131,-0.47332540154457,4.15243864059448,0.18945568799973
162,1965104108,-0.13050878047943,-0.28221553564072,-116.48330688476562,-0.38435503840446,-0.44045355916023,9.81577110290527,-3.37339496612549,3.46182775497437,0.08131239563227
163,1965112441,-0.13313972949982,-0.28829950094223,-116.48016357421875,0.79326969385147,-1.37828254699707,9.16273784637451,-0.93942773342133,2.81291675567627,0.69108486175537
164,1965120774,-0.10514466464520,-0.28568169474602,-116.47830200195312,0.32472351193428,0.93525707721710,9.31104278564453,2.73440909385681,3.86499619483948,0.53916686773300
165,1965129107,-0.12194468080997,-0.28134593367577,-116.48117065429688,-1.05431938171387,0.69934397935867,10.03104972839355,-2.64239025115967,4.06596565246582,-0.01908260583878
166,1965137440,-0.13283582031727,-0.28890827298164,-116.47796630859375,0.88222074508667,-1.75732254981995,9.02911376953125,-1.93238925933838,2.64299201965332,0.69958877563477
167,1965145773,-0.09937413036823,-0.28467085957527,-116.47900390625000,-0.06994304060936,1.64178669452667,9.64926433563232,3.38957047462463,4.05305624008179,0.20274950563908
168,1965154106,-0.14056105911732,-0.28617078065872,-116.48049163818359,-0.59611570835114,-0.88287669420242,9.70122432708740,-5.57081460952759,3.37079477310181,0.13645982742310
169,1965162439,-0.10507310926914,-0.28804844617844,-116.47744750976562,1.03868198394775,-0.15123933553696,8.94841575622559,3.63528752326965,3.32059097290039,0.68611574172974
170,1965170772,-0.12745320796967,-0.28485545516014,-116.48078918457031,-1.24127697944641,0.76924550533295,10.39691925048828,-3.31601881980896,3.93558883666992,-0.08560277521610
171,1965179105,-0.11394596844912,-0.28963211178780,-116.47705078125000,1.36799347400665,-1.31299281120300,8.33216190338135,0.99773848056793,2.96990633010864,0.77986377477646
172,1965187438,-0.12086828052998,-0.28491446375847,-116.48149871826172,-1.25161075592041,1.45689702033997,10.81858825683594,-1.45957601070404,4.11985731124878,-0.21692694723606
173,1965195771,-0.11707825958729,-0.28863519430161,-116.47657012939453,1.31193161010742,-1.61093854904175,7.80151033401489,-0.16797815263271,3.09641528129578,0.91421049833298
174,1965204104,-0.12581600248814,-0.28593331575394,-116.48158264160156,-1.22111582756042,1.52886283397675,11.41559600830078,-1.67791175842285,3.87667632102966,-0.28562435507774
175,1965212437,-0.10957909375429,-0.28691667318344,-116.47762298583984,1.00621891021729,-1.11412382125854,7.63559484481812,1.32636892795563,3.42440509796143,0.79999649524689
176,1965220770,-0.14378733932972,-0.28842800855637,-116.47894287109375,-0.59560030698776,0.35520789027214,11.11733341217041,-4.73399734497070,3.37146091461182,0.15582418441772
177,1965229103,-0.08231797814369,-0.28494751453400,-116.48244476318359,0.18321791291237,0.43717366456985,8.43580818176270,6.74979972839355,3.96294498443604,-0.09792323410511
178,1965237436,-0.16362704336643,-0.29009756445885,-116.47573852539062,0.45949497818947,-1.37961375713348,9.39688396453857,-10.38170623779297,2.93115258216858,1.11976480484009
179,1965245769,-0.08377202600241,-0.28409570455551,-116.48429870605469,-0.99287050962448,2.21366786956787,11.08297729492188,8.95244312286377,4.26736974716187,-0.71043634414673
180,1965254102,-0.14304275810719,-0.28879716992378,-116.47472381591797,1.26765477657318,-2.41527485847473,6.85045433044434,-7.73357725143433,2.98535203933716,1.46366131305695
181,1965262435,-0.12424139678478,-0.28845384716988,-116.48088836669922,-0.81143188476562,1.50631868839264,12.05850887298584,1.62664473056793,3.58615922927856,-0.42230188846588
182,1965270768,-0.08893480151892,-0.28492969274521,-116.48220825195312,0.05022881180048,0.00279988627881,8.05216217041016,3.60944294929504,3.97557258605957,0.15820632874966
183,1965279101,-0.16250516474247,-0.29050478339195,-116.47444152832031,0.80775713920593,-1.52390146255493,9.10063171386719,-9.45009136199951,2.87382745742798,1.24814319610596
184,1965287434,-0.09061328321695,-0.28615805506706,-116.48465728759766,-1.06234371662140,2.02595973014832,11.55445098876953,7.99465131759644,4.07523775100708,-0.90994578599930
185,1965295767,-0.11121550202370,-0.28773316740990,-116.47863006591797,0.71615409851074,-1.38243126869202,6.96471214294434,-3.09389257431030,3.35394072532654,1.04653370380402
186,1965304100,-0.15421791374683,-0.29273638129234,-116.47569274902344,0.19786474108696,-0.23030090332031,10.74624538421631,-5.78510332107544,2.94985055923462,0.66739165782928
187,1965312433,-0.07850733399391,-0.28668463230133,-116.48467254638672,-0.89357423782349,1.59219002723694,10.47744941711426,8.45388889312744,4.27249288558960,-0.76043552160263
188,1965320766,-0.12543220818043,-0.28829115629196,-116.47570800781250,0.95805323123932,-1.76299965381622,7.02707576751709,-6.25228071212769,3.35765457153320,1.39194154739380
189,1965329099,-0.14556744694710,-0.29186242818832,-116.47518920898438,-0.11191916465759,0.42298847436905,11.46336555480957,-3.04217720031738,3.11593365669250,0.38266387581825
190,1965337432,-0.07609459757805,-0.28574755787849,-116.48345184326172,-0.74346148967743,1.20954704284668,9.82263469696045,7.70503139495850,4.28686285018921,-0.67583161592484
191,1965345765,-0.12921893596649,-0.28835663199425,-116.47502899169922,0.97188758850098,-1.79628074169159,7.15222024917603,-6.99532556533813,3.22835469245911,1.32931506633759
192,1965354098,-0.14236724376678,-0.29091483354568,-116.47607421875000,-0.14567361772060,0.53106683492661,11.59066009521484,-2.20556473731995,3.24531054496765,0.18919953703880
193,1965362431,-0.07552850991488,-0.28523817658424,-116.48364257812500,-0.75279635190964,1.16414105892181,9.77285575866699,7.39148569107056,4.22664260864258,-0.58438873291016
194,1965370764,-0.12621694803238,-0.28762388229370,-116.47367095947266,0.90784829854965,-1.66524457931519,7.17561769485474,-6.70506381988525,3.26380395889282,1.51163673400879
195,1965379097,-0.14480850100517,-0.29107674956322,-116.47348022460938,0.01169169694185,0.29528397321701,11.33115196228027,-2.85560297966003,3.12917613983154,0.34134811162949
196,1965387430,-0.07738901674747,-0.28601589798927,-116.48095703125000,-0.84080731868744,1.34797120094299,10.16169166564941,7.45877599716187,4.16055917739868,-0.58029055595398
197,1965395763,-0.11660912632942,-0.28755155205727,-116.47254180908203,0.77664780616760,-1.45904147624969,7.14574050903320,-5.32688999176025,3.35709071159363,1.33177363872528
198,1965404096,-0.14898689091206,-0.29085466265678,-116.47077941894531,0.35138091444969,-0.23638854920864,10.73136520385742,-4.51125574111938,3.15571188926697,0.52443861961365
199,1965412429,-0.08369863778353,-0.28678828477859,-116.48037719726562,-0.99991959333420,1.61978745460510,10.89733219146729,7.20424604415894,4.03353738784790,-0.83064395189285
200,1965420762,-0.10453123599291,-0.28609105944633,-116.47494506835938,0.49938747286797,-1.05609381198883,7.24902629852295,-3.12411713600159,3.63480091094971,0.96835905313492
201,1965429095,-0.15167504549026,-0.29111868143082,-116.46916198730469,0.73436838388443,-0.90041345357895,9.73438072204590,-6.28066205978394,2.93932318687439,1.00708770751953
202,1965437428,-0.09678258001804,-0.28893584012985,-116.47744750976562,-1.05206096172333,1.73862183094025,11.64486694335938,5.95483541488647,3.81509900093079,-0.67657434940338
203,1965445761,-0.08978522568941,-0.28612539172173,-116.47543334960938,0.09498112648726,-0.44584336876869,7.73249673843384,0.21681168675423,3.88110733032227,0.56137442588806
204,1965454094,-0.14622354507446,-0.29106557369232,-116.46797943115234,1.06831276416779,-1.51787173748016,8.44517230987549,-7.39542007446289,2.95697164535522,1.20874881744385
205,1965462427,-0.11656010150909,-0.29051959514618,-116.47404479980469,-0.80019897222519,1.51791787147522,12.11318302154541,2.93066549301147,3.61190176010132,-0.40511476993561
206,1965470760,-0.08035973459482,-0.28579643368721,-116.47641754150391,-0.37866520881653,0.33045822381973,8.71327972412109,3.71453833580017,4.11821842193604,0.03082673437893
207,1965479093,-0.13294842839241,-0.28897050023079,-116.46800231933594,1.10222423076630,-1.76342153549194,7.39136219024658,-6.93057298660278,3.16237235069275,1.32877719402313
208,1965487426,-0.13927534222603,-0.29272016882896,-116.47020721435547,-0.29011115431786,0.81395465135574,11.80329418182373,-1.38790750503540,3.10105180740356,0.05298304930329
209,1965495759,-0.08058980852365,-0.28767392039299,-116.47729492187500,-0.78533744812012,1.08023869991302,10.01381492614746,6.41374158859253,4.15236282348633,-0.53141862154007
210,1965504092,-0.11182948201895,-0.28855010867119,-116.47065734863281,0.73066025972366,-1.43388080596924,6.97681188583374,-4.37342548370361,3.44589543342590,1.11246466636658
211,1965512425,-0.15343864262104,-0.29302209615707,-116.46652984619141,0.40476998686790,-0.25116333365440,10.64584350585938,-5.61569023132324,3.00638103485107,0.80857735872269
212,1965520758,-0.09278269857168,-0.29004275798798,-116.47453308105469,-0.90031558275223,1.49789166450500,11.17903137207031,6.64629268646240,3.90969347953796,-0.64307105541229
213,1965529091,-0.09090517461300,-0.28692233562469,-116.47293853759766,0.12070079147816,-0.52685415744781,7.57826519012451,-0.39871117472649,3.91909265518188,0.50945425033569
214,1965537424,-0.15110900998116,-0.29201754927635,-116.46568298339844,0.95971047878265,-1.26413512229919,8.91946315765381,-7.84697198867798,2.93773508071899,1.18625915050507
215,1965545757,-0.11742505431175,-0.29272302985191,-116.47316741943359,-0.63011455535889,1.21709787845612,11.74879837036133,3.41080451011658,3.46275043487549,-0.57977825403214
216,1965554090,-0.08131933212280,-0.28894650936127,-116.47703552246094,-0.57500368356705,0.57484102249146,9.01534652709961,3.70406198501587,4.00515747070312,-0.14751239120960
217,1965562423,-0.13097718358040,-0.29139187932014,-116.46907043457031,1.05624711513519,-1.67779850959778,7.41419792175293,-6.57991313934326,3.24841022491455,1.27345025539398
218,1965570756,-0.14053258299828,-0.29453650116920,-116.47009277343750,-0.02225147373974,0.37241441011429,11.21284770965576,-1.77442634105682,3.17558908462524,0.19309292733669
219,1965579089,-0.08754999935627,-0.29057875275612,-116.47717285156250,-0.95416688919067,1.39877355098724,10.74406528472900,5.72945547103882,4.02111482620239,-0.53016340732574
220,1965587422,-0.10073374211788,-0.28903025388718,-116.47261810302734,0.55454516410828,-1.15491104125977,7.05057764053345,-2.20664072036743,3.73674583435059,0.86264908313751
221,1965595755,-0.15059857070446,-0.29463934898376,-116.46672058105469,0.68684673309326,-0.73986250162125,9.63664531707764,-6.60678291320801,2.86903786659241,1.02509462833405
222,1965604088,-0.11096226423979,-0.29283690452576,-116.47335815429688,-0.75269275903702,1.39180397987366,11.81388282775879,4.12608194351196,3.77050471305847,-0.48157328367233
223,1965612421,-0.07923842966557,-0.28900682926178,-116.47447967529297,-0.26192834973335,0.08151777088642,8.21625423431396,3.18101906776428,4.00300550460815,0.18579284846783
224,1965620754,-0.13762621581554,-0.29248785972595,-116.46494293212891,0.96358323097229,-1.45644271373749,7.97487688064575,-7.62794446945190,3.13201904296875,1.45638704299927
225,1965629087,-0.13626921176910,-0.29468965530396,-116.46768951416016,-0.08196968585253,0.46438366174698,11.32597351074219,-0.46589735150337,3.28163194656372,-0.01298641879112
226,1965637420,-0.08161392807961,-0.29058539867401,-116.47454833984375,-0.94720953702927,1.29844558238983,10.31665611267090,5.92878675460815,4.04455184936523,-0.50524085760117
227,1965645753,-0.10729181021452,-0.28972047567368,-116.46826171875000,0.62373435497284,-1.20625412464142,7.22443389892578,-3.70389556884766,3.64899158477783,1.07166123390198
228,1965654086,-0.14736403524876,-0.29425430297852,-116.46511077880859,0.70041036605835,-0.76026600599289,9.68571662902832,-5.43400907516479,3.00558710098267,0.69467091560364
229,1965662419,-0.10700394958258,-0.29361668229103,-116.47267913818359,-0.90484982728958,1.53090524673462,11.84258270263672,4.21463060379028,3.62227511405945,-0.59125334024429
230,1965670752,-0.08149761706591,-0.28978410363197,-116.47281646728516,-0.16031759977341,-0.12345990538597,8.09590625762939,2.43310880661011,4.01145792007446,0.30244007706642
231,1965679085,-0.13486360013485,-0.29327830672264,-116.46492767333984,0.95344108343124,-1.44697928428650,7.88124990463257,-7.02514076232910,3.12430977821350,1.26668810844421
232,1965687418,-0.13696120679379,-0.29591044783592,-116.46797943115234,-0.18858441710472,0.68103742599487,11.67219543457031,-0.88177001476288,3.23660182952881,-0.04999898374081
233,1965695751,-0.07941050082445,-0.29083079099655,-116.47467041015625,-0.79688459634781,1.05236291885376,9.91998767852783,6.27831792831421,4.15625572204590,-0.47727009654045
234,1965704084,-0.11093800514936,-0.29103541374207,-116.46753692626953,0.60091787576675,-1.17285335063934,7.25553274154663,-4.40587949752808,3.52473616600037,1.17194092273712
235,1965712417,-0.15192088484764,-0.29554539918900,-116.46349334716797,0.63234543800354,-0.65194028615952,10.02766513824463,-5.54202365875244,3.00151419639587,0.80194330215454
236,1965720750,-0.10106234252453,-0.29299616813660,-116.47255706787109,-0.92500936985016,1.54045295715332,11.43831253051758,5.47054719924927,3.85956525802612,-0.77162879705429
237,1965729083,-0.08928132057190,-0.29022637009621,-116.47136688232422,-0.07032433152199,-0.20231468975544,7.97133445739746,0.78946906328201,3.87716197967529,0.46862521767616
238,1965737416,-0.14291563630104,-0.29431197047234,-116.46371459960938,1.08453297615051,-1.54445707798004,8.10923004150391,-7.05872106552124,3.05965948104858,1.23438858985901
239,1965745749,-0.12958003580570,-0.29504552483559,-116.46818542480469,-0.51538026332855,1.14360868930817,11.93195343017578,0.97158640623093,3.45614171028137,-0.21797715127468
240,1965754082,-0.08205289393663,-0.28983905911446,-116.47356414794922,-0.66202008724213,0.82027935981750,9.53383636474609,5.07383394241333,4.17748928070068,-0.32596677541733
241,1965762415,-0.12136607617140,-0.29099568724632,-116.46643066406250,0.92652332782745,-1.59982824325562,7.00717544555664,-5.33977413177490,3.40468287467957,1.17578303813934
242,1965770748,-0.15046744048595,-0.29522490501404,-116.46453857421875,0.14439991116524,0.12547744810581,11.09555721282959,-4.11682224273682,3.04270195960999,0.54095977544785
243,1965779081,-0.09013395756483,-0.29138043522835,-116.47283935546875,-0.93124681711197,1.40586125850677,10.90500259399414,6.60969066619873,4.00907659530640,-0.67946892976761
244,1965787414,-0.09833395481110,-0.29002457857132,-116.46877288818359,0.38591048121452,-0.91600126028061,7.13729763031006,-1.61008512973785,3.71384620666504,0.80281412601471
245,1965795747,-0.15559493005276,-0.29515677690506,-116.46252441406250,0.75928461551666,-0.90428340435028,9.66829586029053,-7.49221658706665,2.92682385444641,1.06794738769531
246,1965804080,-0.10719941556454,-0.29257220029831,-116.47147369384766,-0.81451225280762,1.42680358886719,11.64640903472900,5.17516374588013,3.86422729492188,-0.75815576314926
247,1965812413,-0.08377119153738,-0.28933468461037,-116.47112274169922,-0.23092348873615,0.04351450130343,8.12258052825928,2.18508672714233,3.93392395973206,0.36035388708115
248,1965820746,-0.14853693544865,-0.29381775856018,-116.46108245849609,1.10208129882812,-1.59853839874268,8.23836612701416,-8.39286327362061,3.01014661788940,1.52093505859375
249,1965829079,-0.12449325621128,-0.29568341374397,-116.46672058105469,-0.50127297639847,1.04104697704315,11.73821353912354,2.25637078285217,3.32276821136475,-0.35865050554276
250,1965837412,-0.07965132594109,-0.29173621535301,-116.47033691406250,-0.64418399333954,0.84496283531189,9.27126502990723,4.75176095962524,4.02564811706543,-0.11715951561928
251,1965845745,-0.13428364694118,-0.29485347867012,-116.46012115478516,1.11406791210175,-1.79623854160309,7.32577657699585,-7.17559862136841,3.16790485382080,1.54898262023926
252,1965854078,-0.13784649968147,-0.29809692502022,-116.46342468261719,-0.14087653160095,0.51401114463806,11.38286304473877,-1.05625426769257,3.16344809532166,-0.08204239606857
253,1965862411,-0.08119323104620,-0.29481929540634,-116.47114562988281,-0.91396814584732,1.38235402107239,10.27387428283691,6.16807508468628,3.94014835357666,-0.60354828834534
254,1965870744,-0.11934331059456,-0.29534810781479,-116.46293640136719,0.96695739030838,-1.68658268451691,6.91195058822632,-5.19933128356934,3.48669910430908,1.30111348628998
255,1965879077,-0.14673511683941,-0.30029422044754,-116.46210479736328,0.18243597447872,0.00821515079588,10.86166000366211,-3.91288185119629,2.94997859001160,0.41278621554375
256,1965887410,-0.08756552636623,-0.29630672931671,-116.47000122070312,-1.03248465061188,1.63842248916626,10.98721599578857,6.46822357177734,4.03154039382935,-0.62913691997528
257,1965895743,-0.10917235910892,-0.29589912295341,-116.46386718750000,0.75349682569504,-1.45343923568726,6.83815765380859,-3.21353650093079,3.59212708473206,1.05221998691559
258,1965904076,-0.15198920667171,-0.30129888653755,-116.46062469482422,0.39505898952484,-0.40748336911201,10.36261653900146,-5.76445817947388,2.90318179130554,0.70325165987015
259,1965912409,-0.09355201572180,-0.29760995507240,-116.47000122070312,-1.03957796096802,1.74409937858582,11.39729404449463,6.38233709335327,3.98945546150208,-0.80705326795578
260,1965920742,-0.10112659633160,-0.29655811190605,-116.46554565429688,0.57449245452881,-1.18763780593872,6.93077611923218,-1.53421568870544,3.67734575271606,0.85155791044235
261,1965929075,-0.15623874962330,-0.30160379409790,-116.46008300781250,0.56241154670715,-0.69430512189865,9.92027664184570,-7.23671436309814,2.93714642524719,0.97327709197998
262,1965937408,-0.09988312423229,-0.29897215962410,-116.46877288818359,-1.00678491592407,1.73856759071350,11.64718246459961,6.13011455535889,3.86965775489807,-0.72483170032501
263,1965945741,-0.09876104444265,-0.29740226268768,-116.46649932861328,0.45647397637367,-0.99305814504623,7.06152582168579,-0.48879647254944,3.73339009284973,0.59349465370178
264,1965954074,-0.15711010992527,-0.30323937535286,-116.46138000488281,0.65846312046051,-0.88497823476791,9.67586803436279,-7.62479400634766,2.84987831115723,0.93034744262695
265,1965962407,-0.10118322819471,-0.29993131756783,-116.47109222412109,-1.00107049942017,1.76174092292786,11.69483566284180,6.07998752593994,3.94388794898987,-0.85256987810135
266,1965970740,-0.09655275940895,-0.29801514744759,-116.46823883056641,0.38228419423103,-0.88589221239090,7.12112045288086,-0.07018299400806,3.78059673309326,0.65888774394989
267,1965979073,-0.15725731849670,-0.30344617366791,-116.46199035644531,0.69105535745621,-0.92039895057678,9.60334014892578,-7.90737009048462,2.89198803901672,1.06500136852264
268,1965987406,-0.10064072161913,-0.30090460181236,-116.47113037109375,-0.99821889400482,1.77475464344025,11.71871376037598,6.16174793243408,3.85995030403137,-0.78243809938431
269,1965995739,-0.09776207059622,-0.29903998970985,-116.46836090087891,0.38939434289932,-0.88333553075790,7.17313098907471,-0.27822181582451,3.76676535606384,0.65015327930450
270,1966004072,-0.15950618684292,-0.30478197336197,-116.46196746826172,0.66818213462830,-0.89153772592545,9.65190029144287,-8.03231716156006,2.86091828346252,1.08134341239929
271,1966012405,-0.10072673112154,-0.30110406875610,-116.47053527832031,-1.00834655761719,1.77741265296936,11.65057086944580,6.42129707336426,3.98858547210693,-0.71456032991409
272,1966020738,-0.10064458101988,-0.29939055442810,-116.46727752685547,0.45225700736046,-0.96808499097824,7.09378719329834,-0.61461359262466,3.75657081604004,0.70765721797943
273,1966029071,-0.15986578166485,-0.30460172891617,-116.46086120605469,0.61160540580750,-0.81394553184509,9.87060737609863,-7.72835206985474,2.91550159454346,1.08590269088745
274,1966037404,-0.09808093309402,-0.30094256997108,-116.47071075439453,-1.00912427902222,1.75385069847107,11.52619171142578,6.78017902374268,3.99324750900269,-0.86440378427505
275,1966045737,-0.10497893393040,-0.29981037974358,-116.46633911132812,0.52264505624771,-1.14217734336853,6.94893836975098,-1.44981682300568,3.67936921119690,0.84538501501083
276,1966054070,-0.16126285493374,-0.30577504634857,-116.46118927001953,0.51644253730774,-0.65201121568680,10.13866901397705,-7.37787389755249,2.83443331718445,0.93367749452591
277,1966062403,-0.09569919109344,-0.30202645063400,-116.47059631347656,-0.99330884218216,1.73725616931915,11.32423496246338,7.23705863952637,3.99785709381104,-0.81732463836670
278,1966070736,-0.11033546924591,-0.30179023742676,-116.46517944335938,0.66669732332230,-1.32395052909851,6.85893440246582,-2.38092017173767,3.57878232002258,0.96684765815735
279,1966079069,-0.15888923406601,-0.30681103467941,-116.46125793457031,0.36250612139702,-0.36080905795097,10.50329589843750,-6.44935703277588,2.94047594070435,0.78524285554886
280,1966087402,-0.09042220562696,-0.30248811841011,-116.47005462646484,-0.98674738407135,1.68691623210907,11.05563735961914,7.58267211914062,4.07147216796875,-0.73953425884247
281,1966095735,-0.11589686572552,-0.30223220586777,-116.46385192871094,0.78750050067902,-1.53753232955933,6.80011034011841,-3.67853713035583,3.57307028770447,1.06241452693939
282,1966104068,-0.15659965574741,-0.30678302049637,-116.46118927001953,0.18175126612186,-0.05396867543459,10.92795372009277,-5.50921297073364,3.00481915473938,0.63737189769745
283,1966112401,-0.08678206801414,-0.30258896946907,-116.47027587890625,-0.93782794475555,1.56617379188538,10.69110679626465,7.74621915817261,4.04939317703247,-0.77467691898346
284,1966120734,-0.12191469222307,-0.30397194623947,-116.46302032470703,0.94292801618576,-1.71232306957245,6.73763275146484,-4.83840084075928,3.38513875007629,1.18761682510376
285,1966129067,-0.15220730006695,-0.30845656991005,-116.46158599853516,-0.02922086045146,0.25842624902725,11.32320594787598,-4.26008272171021,3.00535678863525,0.48960328102112
286,1966137400,-0.08385727554560,-0.30276021361351,-116.46943664550781,-0.84869778156281,1.38911104202271,10.26613426208496,7.57027435302734,4.23699140548706,-0.62411642074585
287,1966145733,-0.12929604947567,-0.30549201369286,-116.46174621582031,1.05544495582581,-1.90398180484772,6.79534149169922,-6.07359600067139,3.21562361717224,1.23825609683990
288,1966154066,-0.14661239087582,-0.30803710222244,-116.46316528320312,-0.25908270478249,0.64842128753662,11.69108486175537,-2.70573449134827,3.24623298645020,0.14437465369701
289,1966162399,-0.08159558475018,-0.30279326438904,-116.46967315673828,-0.71199417114258,1.13091516494751,9.74251556396484,7.17274093627930,4.17600393295288,-0.46256747841835
290,1966170732,-0.13559904694557,-0.30511084198952,-116.46095275878906,1.14675760269165,-2.00401616096497,6.99333620071411,-7.10336637496948,3.27036213874817,1.36204993724823
291,1966179065,-0.13873191177845,-0.30637925863266,-116.46289825439453,-0.47945299744606,1.03689813613892,12.02777385711670,-1.00164484977722,3.39233660697937,0.08354083448648
292,1966187398,-0.08114770054817,-0.30038252472878,-116.46714019775391,-0.53601151704788,0.76299512386322,9.18107509613037,6.27947092056274,4.27313375473022,-0.19436082243919
293,1966195731,-0.14318753778934,-0.30440935492516,-116.45835876464844,1.19404375553131,-1.98087143898010,7.32924365997314,-8.06553936004639,3.05817317962646,1.37344825267792
294,1966204064,-0.12787480652332,-0.30528840422630,-116.46329498291016,-0.75307136774063,1.40674328804016,12.21434116363525,1.20777523517609,3.44835472106934,-0.27763268351555
295,1966212397,-0.08346100896597,-0.30162665247917,-116.46556091308594,-0.27587217092514,0.32978466153145,8.54545211791992,4.70347833633423,3.98410224914551,0.05037039890885
296,1966220730,-0.14927627146244,-0.30678060650826,-116.45726776123047,1.13076913356781,-1.84541153907776,7.90921783447266,-8.52108764648438,2.93120360374451,1.31053960323334
297,1966229063,-0.11569516360760,-0.30669423937798,-116.46369934082031,-0.94653779268265,1.74576425552368,12.27816200256348,3.40053319931030,3.55680561065674,-0.45616394281387
298,1966237396,-0.08881268650293,-0.30269318819046,-116.46286773681641,0.04831490665674,-0.20346488058567,7.89105415344238,2.59972977638245,4.03000307083130,0.41650027036667
299,1966245729,-0.15377481281757,-0.30809125304222,-116.45546722412109,0.97953617572784,-1.58073663711548,8.59641742706299,-8.41663265228271,2.89519000053406,1.20536756515503
300,1966254062,-0.10280442237854,-0.30605930089951,-116.46447753906250,-1.10502696037292,1.95780789852142,12.05200576782227,5.48250865936279,3.79824471473694,-0.76445680856705
301,1966262395,-0.09788345545530,-0.30352041125298,-116.46160888671875,0.34879893064499,-0.77246624231339,7.36727046966553,-0.03224832192063,3.84842371940613,0.66278111934662
302,1966270728,-0.15522190928459,-0.30821821093559,-116.45580291748047,0.72241306304932,-1.09528350830078,9.51532173156738,-7.50417804718018,2.98632574081421,1.01000785827637
303,1966279061,-0.09002059698105,-0.30380710959435,-116.46542358398438,-1.13143002986908,2.01950240135193,11.58665275573730,7.19279718399048,4.07590341567993,-0.83433240652084
304,1966287394,-0.11009584367275,-0.30345958471298,-116.45886230468750,0.69755744934082,-1.31382787227631,6.99538469314575,-3.03144502639771,3.59151291847229,1.10360217094421
305,1966295727,-0.15154561400414,-0.30862000584602,-116.45597076416016,0.37306869029999,-0.45808392763138,10.43093109130859,-5.59816932678223,2.92369842529297,0.66362637281418
306,1966304060,-0.08082501590252,-0.30344098806381,-116.46487426757812,-1.06436967849731,1.80264663696289,10.80165767669678,7.85279989242554,4.17508220672607,-0.74883216619492
307,1966312393,-0.12690393626690,-0.30570474267006,-116.45569610595703,0.97393912076950,-1.74057745933533,7.00148534774780,-6.14923524856567,3.27059197425842,1.41581404209137
308,1966320726,-0.14346934854984,-0.30796670913696,-116.45505523681641,-0.08814331144094,0.27514180541039,11.26713848114014,-2.61441969871521,3.28032565116882,0.39380609989166
309,1966329059,-0.07707406580448,-0.30296021699905,-116.46205902099609,-0.77242457866669,1.31212127208710,9.79518318176270,7.33764648437500,4.14744424819946,-0.52155709266663
310,1966337392,-0.14230763912201,-0.30690479278564,-116.45201873779297,1.11266708374023,-1.93986999988556,7.41030406951904,-8.44783210754395,3.07597541809082,1.51993608474731
311,1966345725,-0.12948505580425,-0.30670359730721,-116.45664215087891,-0.51721990108490,1.05829095840454,11.87480258941650,0.90980470180511,3.56861352920532,-0.23298704624176
312,1966354058,-0.07951798290014,-0.30175134539604,-116.46129608154297,-0.37489378452301,0.53497970104218,8.66017627716064,5.36501741409302,4.14818716049194,-0.23885275423527
313,1966362391,-0.15479372441769,-0.30685773491859,-116.45140838623047,1.05014371871948,-1.78551864624023,8.17969226837158,-9.65262413024902,2.92902684211731,1.50397837162018
314,1966370724,-0.11300620436668,-0.30570361018181,-116.45916748046875,-0.87117320299149,1.64191806316376,11.99928951263428,4.38258266448975,3.69302177429199,-0.61635529994965
315,1966379057,-0.09097378700972,-0.30196589231491,-116.45925903320312,0.14383979141712,-0.38277345895767,7.56399154663086,2.01846575737000,3.99150490760803,0.31289070844650
316,1966387390,-0.16125814616680,-0.30839997529984,-116.45215606689453,0.76330125331879,-1.20056104660034,9.37008380889893,-9.05670738220215,2.77826094627380,1.16768908500671
317,1966395723,-0.09759058803320,-0.30505463480949,-116.46139526367188,-1.04610729217529,1.89609301090240,11.64559268951416,7.00873470306396,3.94714164733887,-0.78948211669922
318,1966404056,-0.10922618210316,-0.30418869853020,-116.45676422119141,0.68481189012527,-1.30494546890259,6.84840917587280,-2.01945185661316,3.65447258949280,0.87276673316956
319,1966412389,-0.15714450180531,-0.30921554565430,-116.45412445068359,0.26173520088196,-0.28219619393349,10.69713211059570,-6.37599754333496,2.94121837615967,0.63401633501053
320,1966420722,-0.08492363244295,-0.30388149619102,-116.46283721923828,-0.97368377447128,1.68050193786621,10.70505619049072,8.03481483459473,4.19398593902588,-0.72772610187531
321,1966429055,-0.12898184359074,-0.30617639422417,-116.45384979248047,1.07570815086365,-1.95431756973267,6.75476932525635,-5.90748834609985,3.26516222953796,1.39411878585815
322,1966437388,-0.14370858669281,-0.30900368094444,-116.45497131347656,-0.33316722512245,0.74000132083893,11.73341369628906,-2.39462351799011,3.21362590789795,0.17946614325047
323,1966445721,-0.08243901282549,-0.30351257324219,-116.46118927001953,-0.60147434473038,0.99671500921249,9.46102237701416,6.72239303588867,4.20346355438232,-0.42724552750587
324,1966454054,-0.14739719033241,-0.30805489420891,-116.45159912109375,1.22763741016388,-2.11489915847778,7.30937051773071,-8.41589069366455,3.00466561317444,1.46778559684753
325,1966462387,-0.12293202430010,-0.30805355310440,-116.45759582519531,-0.84052395820618,1.58362603187561,12.26138877868652,2.30588293075562,3.54543304443359,-0.39855748414993
326,1966470720,-0.09002029895782,-0.30337861180305,-116.45863342285156,-0.07045399397612,0.04537712037563,8.16767024993896,3.32176923751831,4.11199378967285,0.19227324426174
327,1966479053,-0.15789310634136,-0.30872967839241,-116.45018005371094,1.01584410667419,-1.71121287345886,8.54733562469482,-8.76552486419678,2.90115809440613,1.33243989944458
328,1966487386,-0.09943217039108,-0.30543994903564,-116.45918273925781,-1.14316082000732,2.04009509086609,11.98859977722168,6.38372087478638,3.94796085357666,-0.76519966125488
329,1966495719,-0.10539241135120,-0.30434277653694,-116.45495605468750,0.50701242685318,-0.96728563308716,7.25715446472168,-1.33839499950409,3.67639803886414,0.82783925533295
330,1966504052,-0.15736925601959,-0.30893048644066,-116.45023345947266,0.55680829286575,-0.83791905641556,10.06503200531006,-6.86179828643799,2.99979829788208,0.88152676820755
331,1966512385,-0.08134018629789,-0.30416953563690,-116.46020507812500,-1.06263244152069,1.91717362403870,10.96403217315674,8.49205493927002,4.11745071411133,-0.87879896163940
332,1966520718,-0.12660531699657,-0.30635747313499,-116.45201110839844,0.93052983283997,-1.68072545528412,7.00966072082520,-6.05320692062378,3.28603744506836,1.30085730552673
333,1966529051,-0.14521081745625,-0.30888062715530,-116.45215606689453,-0.09059432893991,0.32407823204994,11.36744785308838,-2.85962438583374,3.24162244796753,0.29636952280998
334,1966537384,-0.07348710298538,-0.30369785428047,-116.45897674560547,-0.68803620338440,1.20520246028900,9.55687904357910,7.97633790969849,4.17469739913940,-0.49901655316353
335,1966545717,-0.14541515707970,-0.30889755487442,-116.44889068603516,1.07294797897339,-1.89054787158966,7.52892827987671,-9.25111865997314,2.91744875907898,1.52618598937988
336,1966554050,-0.12607716023922,-0.30940815806389,-116.45332336425781,-0.67083090543747,1.32969796657562,12.12333106994629,1.69114136695862,3.49141216278076,-0.21541571617126
337,1966562383,-0.08117785304785,-0.30525621771812,-116.45547485351562,-0.12487290799618,0.14371134340763,8.08045864105225,4.76029062271118,4.04360437393188,0.06110275909305
338,1966570716,-0.15647816658020,-0.31121742725372,-116.44662475585938,0.93462973833084,-1.54369103908539,8.63204288482666,-9.65879726409912,2.83246088027954,1.37624025344849
339,1966579049,-0.10538780689240,-0.30841878056526,-116.45450592041016,-1.03779649734497,1.92572999000549,12.06589221954346,5.50092554092407,3.88266921043396,-0.62762558460236
340,1966587382,-0.09970986098051,-0.30727842450142,-116.45104217529297,0.51721936464310,-1.00594568252563,7.05621480941772,0.05633850768209,3.68646454811096,0.73383504152298
341,1966595715,-0.15780176222324,-0.31246623396873,-116.44662475585938,0.47405096888542,-0.70619636774063,10.04000663757324,-7.59372425079346,2.92187952995300,0.84812575578690
342,1966604048,-0.08991592377424,-0.30767497420311,-116.45650482177734,-1.08290004730225,1.91758930683136,11.26359653472900,7.51200199127197,4.12887382507324,-0.86709308624268
343,1966612381,-0.12379363179207,-0.30879613757133,-116.44900512695312,1.01232147216797,-1.83806622028351,6.70019245147705,-4.68609905242920,3.40849900245667,1.21594619750977
344,1966620714,-0.14732705056667,-0.31225973367691,-116.44966888427734,-0.13129290938377,0.36139944195747,11.35385704040527,-3.45174908638000,3.13527202606201,0.23379392921925
345,1966629047,-0.08284789323807,-0.30590900778770,-116.45711517333984,-0.75957632064819,1.32700026035309,9.88182163238525,7.10732269287109,4.30661106109619,-0.57363075017929
346,1966637380,-0.14598050713539,-0.31016516685486,-116.44718933105469,1.20858323574066,-2.12737298011780,7.22727537155151,-8.19706726074219,3.03973078727722,1.50646269321442
347,1966645713,-0.12644252181053,-0.31048709154129,-116.45292663574219,-0.67302256822586,1.30431175231934,12.02262592315674,1.71547496318817,3.50767731666565,-0.36843517422676
348,1966654046,-0.08715144544840,-0.30630543828011,-116.45501708984375,-0.21762403845787,0.33910286426544,8.41854953765869,4.08645677566528,4.05297946929932,0.06445822864771
349,1966662379,-0.15908245742321,-0.31140616536140,-116.44531250000000,1.03226006031036,-1.73564505577087,8.45487403869629,-9.25170707702637,2.92994832992554,1.48453688621521
350,1966670712,-0.10297980159521,-0.30864235758781,-116.45512390136719,-1.02263009548187,1.87393903732300,11.90046691894531,6.09840393066406,3.88617873191833,-0.85938328504562
351,1966679045,-0.10173753648996,-0.30689013004303,-116.45199584960938,0.39623451232910,-0.75296980142593,7.34873962402344,-0.47306931018829,3.75326657295227,0.69182765483856
352,1966687378,-0.16034561395645,-0.31230947375298,-116.44680023193359,0.56926035881042,-0.87278443574905,9.99655818939209,-7.65688896179199,2.90085029602051,0.93721199035645
353,1966695711,-0.08555161207914,-0.30791506171227,-116.45658111572266,-1.02457809448242,1.85370790958405,11.04861354827881,8.34249401092529,4.07341957092285,-0.85551553964615
354,1966704044,-0.12234506011009,-0.30884149670601,-116.44876861572266,0.88137263059616,-1.60499668121338,6.95296955108643,-5.03737306594849,3.43777632713318,1.25349676609039
355,1966712377,-0.14972379803658,-0.31253114342690,-116.44838714599609,-0.06509805470705,0.26385664939880,11.34458541870117,-3.91172885894775,3.10253691673279,0.36381179094315
356,1966720710,-0.07815130054951,-0.30641189217567,-116.45609283447266,-0.70140200853348,1.22855556011200,9.72003746032715,7.95707654953003,4.28635072708130,-0.60759532451630
357,1966729043,-0.14275830984116,-0.31082919239998,-116.44667816162109,1.09340250492096,-1.94980752468109,7.34935760498047,-8.37288188934326,3.01257967948914,1.44931733608246
358,1966737376,-0.12873809039593,-0.31083244085312,-116.45165252685547,-0.70186513662338,1.36108982563019,12.16836929321289,1.05173325538635,3.55319380760193,-0.28175655007362
359,1966745709,-0.08403009921312,-0.30514377355576,-116.45445251464844,-0.11991082876921,0.12801964581013,8.18381881713867,4.73890209197998,4.22677183151245,-0.01603451184928
360,1966754042,-0.15662622451782,-0.31021180748940,-116.44601440429688,0.96384334564209,-1.63021802902222,8.46560955047607,-9.33364772796631,2.94201231002808,1.32834124565125
361,1966762375,-0.10590714216232,-0.30702203512192,-116.45427703857422,-1.10644280910492,2.01456308364868,12.14729499816895,5.45553731918335,3.92795562744141,-0.67211753129959
362,1966770708,-0.10317543894053,-0.30524227023125,-116.45130157470703,0.55687254667282,-1.06517076492310,7.01209402084351,-0.29740688204765,3.76525402069092,0.67476862668991
363,1966779041,-0.15719167888165,-0.31007921695709,-116.44705200195312,0.46514704823494,-0.73227328062057,10.05399990081787,-7.10638904571533,2.96127533912659,0.82701981067657
364,1966787374,-0.08804651349783,-0.30550721287727,-116.45521545410156,-1.12623643875122,1.99105083942413,11.20090389251709,7.66637945175171,4.10151815414429,-0.66210234165192
365,1966795707,-0.12811318039894,-0.30739971995354,-116.44724273681641,1.04887151718140,-1.88832271099091,6.77448368072510,-5.42886018753052,3.31618571281433,1.28000748157501
366,1966804040,-0.14377319812775,-0.31076249480247,-116.44738769531250,-0.18089893460274,0.40460336208344,11.30707645416260,-2.50655746459961,3.14838600158691,0.29765015840530
367,1966812373,-0.08028548210859,-0.30599913001060,-116.45384979248047,-0.76178073883057,1.29493796825409,9.68118953704834,6.98852443695068,4.11729717254639,-0.45741909742355
368,1966820706,-0.14952097833157,-0.31085893511772,-116.44325256347656,1.20029032230377,-2.07694864273071,7.45941066741943,-8.92925167083740,2.96632075309753,1.58906877040863
369,1966829039,-0.12218189239502,-0.31008452177048,-116.45018768310547,-0.69674837589264,1.34740662574768,11.98323631286621,2.64985680580139,3.63841271400452,-0.51479494571686
370,1966837372,-0.08601319044828,-0.30651423335075,-116.45170593261719,-0.16750237345695,0.21200267970562,8.18730163574219,3.71336007118225,3.98067021369934,0.13366790115833
371,1966845705,-0.16238245368004,-0.31239169836044,-116.44249725341797,0.97593820095062,-1.62458682060242,8.79439353942871,-9.78497123718262,2.83686637878418,1.42308855056763
372,1966854038,-0.10123776644468,-0.30864679813385,-116.45249938964844,-1.00123882293701,1.83702683448792,11.77472782135010,6.70349025726318,4.00380039215088,-0.88230812549591
373,1966862371,-0.10305349528790,-0.30745685100555,-116.44937133789062,0.48965853452682,-0.96102273464203,7.08606815338135,-0.84214478731155,3.68646454811096,0.69538801908493
374,1966870704,-0.16308084130287,-0.31287434697151,-116.44432830810547,0.46472877264023,-0.65981394052505,10.29917335510254,-7.82747983932495,2.89987707138062,0.91902589797974
375,1966879037,-0.08770531415939,-0.30801868438721,-116.45333099365234,-0.97854048013687,1.73227834701538,10.97196960449219,8.41393280029297,4.12966918945312,-0.76135766506195
376,1966887370,-0.12421917170286,-0.30953678488731,-116.44593048095703,0.93264698982239,-1.71245658397675,6.77403926849365,-5.00450992584229,3.36856675148010,1.20303678512573
377,1966895703,-0.15170797705650,-0.31277847290039,-116.44491577148438,-0.12739211320877,0.39574474096298,11.47447586059570,-3.92374229431152,3.15622425079346,0.44477838277817
378,1966904036,-0.08122942596674,-0.30696102976799,-116.45166778564453,-0.70006632804871,1.20209097862244,9.81217956542969,7.82659673690796,4.25074672698975,-0.49171647429466
379,1966912369,-0.14001907408237,-0.31030777096748,-116.44247436523438,1.14517593383789,-2.01116347312927,7.11545276641846,-7.67515087127686,3.14029240608215,1.42385685443878
380,1966920702,-0.13401953876019,-0.31128564476967,-116.44680023193359,-0.63264095783234,1.25758647918701,12.14813709259033,0.08961139619350,3.43465089797974,-0.20322333276272
381,1966929035,-0.08412727713585,-0.30641445517540,-116.45002746582031,-0.32654258608818,0.44736033678055,8.63212013244629,5.35986804962158,4.12956523895264,-0.05983485281467
382,1966937368,-0.15195912122726,-0.31141227483749,-116.44090270996094,1.09353148937225,-1.88264703750610,7.90801286697388,-8.76063251495361,2.94903111457825,1.41074264049530
383,1966945701,-0.11745411157608,-0.31176319718361,-116.44864654541016,-0.96302378177643,1.77107465267181,12.25613880157471,3.50964975357056,3.50462937355042,-0.61358904838562
384,1966954034,-0.09296764433384,-0.30816963315010,-116.44853973388672,0.09492226690054,-0.30038028955460,7.76214218139648,2.31128787994385,3.98382067680359,0.33243435621262
385,1966962367,-0.15680201351643,-0.31341922283173,-116.44065856933594,0.94109582901001,-1.44742596149445,8.85359668731689,-8.28256797790527,2.91258215904236,1.26579153537750
386,1966970700,-0.10289748013020,-0.31018495559692,-116.45035552978516,-1.10312521457672,1.98201549053192,12.02557468414307,5.83688306808472,3.94163393974304,-0.84565407037735
387,1966979033,-0.10379123687744,-0.30875942111015,-116.44683074951172,0.44713100790977,-0.89214622974396,7.25765180587769,-0.73077404499054,3.71458911895752,0.73985433578491
388,1966987366,-0.15733823180199,-0.31412589550018,-116.44133758544922,0.64279335737228,-0.95907211303711,9.70799541473389,-7.05013942718506,2.90643453598022,0.97314894199371
389,1966995699,-0.09305992722511,-0.31010702252388,-116.44966888427734,-1.13465690612793,1.96425473690033,11.49920558929443,7.08204078674316,4.02823495864868,-0.68044209480286
390,1967004032,-0.11431293189526,-0.31004530191422,-116.44364929199219,0.71539539098740,-1.33499550819397,6.98170328140259,-3.17334747314453,3.55841898918152,1.03744065761566
391,1967012365,-0.15459029376507,-0.31468528509140,-116.44075012207031,0.39010265469551,-0.46935969591141,10.38823699951172,-5.45806074142456,2.98460912704468,0.66757100820541
392,1967020698,-0.08693625032902,-0.31025531888008,-116.44902038574219,-1.05749106407166,1.79371070861816,10.96205806732178,7.48669528961182,4.08525276184082,-0.67672806978226
393,1967029031,-0.12398076802492,-0.31008756160736,-116.44064331054688,0.89544528722763,-1.62441682815552,6.96675920486450,-5.06582975387573,3.56210732460022,1.32198905944824
394,1967037364,-0.14959222078323,-0.31306123733521,-116.44038391113281,0.10943547636271,-0.01374355331063,10.93589591979980,-3.70033526420593,3.19559383392334,0.34567695856094
395,1967045697,-0.08259362727404,-0.30794510245323,-116.44837188720703,-0.96174013614655,1.58345532417297,10.38745975494385,7.40939092636108,4.15984153747559,-0.63966429233551
396,1967054030,-0.13176572322845,-0.31022152304649,-116.43893432617188,1.03153300285339,-1.81168687343597,7.07644987106323,-6.52307462692261,3.27627825737000,1.44708895683289
397,1967062363,-0.14222373068333,-0.31285780668259,-116.44028472900391,-0.10113538056612,0.38080579042435,11.33234500885010,-1.88246679306030,3.22832798957825,0.15426170825958
398,1967070696,-0.07943323999643,-0.30769723653793,-116.44709014892578,-0.83163905143738,1.32307195663452,9.83651542663574,6.90410089492798,4.17221403121948,-0.49873486161232
399,1967079029,-0.13854247331619,-0.31084713339806,-116.43743133544922,1.08707416057587,-1.87145638465881,7.25323963165283,-7.71313810348511,3.16298651695251,1.47395825386047
400,1967087362,-0.13682842254639,-0.31296333670616,-116.44106292724609,-0.30125033855438,0.71689206361771,11.61118030548096,-0.42332643270493,3.29889559745789,-0.12041251361370
401,1967095695,-0.08081240952015,-0.30801033973694,-116.44665527343750,-0.67850202322006,1.03073310852051,9.42011928558350,6.09305000305176,4.13983678817749,-0.35260552167892
402,1967104028,-0.14626280963421,-0.31148052215576,-116.43654632568359,1.11424469947815,-1.88399207592010,7.51959466934204,-8.47529029846191,3.13268542289734,1.52900362014771
403,1967112361,-0.13310563564301,-0.31210622191429,-116.44181823730469,-0.44585058093071,0.96971899271011,11.78447628021240,0.95001924037933,3.47056269645691,-0.31187894940376
404,1967120694,-0.08350660651922,-0.30681043863297,-116.44673919677734,-0.53710842132568,0.77004873752594,8.97602939605713,5.32160043716431,4.18722295761108,-0.27081933617592
405,1967129027,-0.15340945124626,-0.31128221750259,-116.43640899658203,1.12240684032440,-1.84288620948792,7.80037975311279,-9.00916862487793,3.00499820709229,1.56222522258759
406,1967137360,-0.12831358611584,-0.31147947907448,-116.44347381591797,-0.61475837230682,1.21482634544373,11.89379692077637,2.38029265403748,3.53055119514465,-0.53152102231979
407,1967145693,-0.08683528751135,-0.30686420202255,-116.44684600830078,-0.37055987119675,0.43927049636841,8.56070137023926,4.35010385513306,4.09867429733276,-0.08483434468508
408,1967154026,-0.15897466242313,-0.31207528710365,-116.43714904785156,1.07565450668335,-1.77603149414062,8.22977066040039,-9.27714252471924,2.92513275146484,1.47882509231567
409,1967162359,-0.11999598145485,-0.31052646040916,-116.44427490234375,-0.76437920331955,1.43936443328857,11.88622093200684,4.04614067077637,3.73052120208740,-0.53982007503510
410,1967170692,-0.09114845842123,-0.30687159299850,-116.44565582275391,-0.14466685056686,0.04368005692959,8.02799606323242,2.83450984954834,3.99055719375610,0.15244312584400
411,1967179025,-0.16416196525097,-0.31262341141701,-116.43639373779297,1.00440871715546,-1.56896960735321,8.73419094085693,-9.38344192504883,2.85033941268921,1.42810893058777
412,1967187358,-0.11147127300501,-0.31081494688988,-116.44486236572266,-0.91899645328522,1.66742002964020,11.86626625061035,5.69090652465820,3.77193903923035,-0.70021635293961
413,1967195691,-0.09900207072496,-0.30873432755470,-116.44409942626953,0.16663259267807,-0.47803393006325,7.51203107833862,0.87146025896072,3.79260993003845,0.41176164150238
414,1967204024,-0.16736316680908,-0.31443521380424,-116.43614959716797,0.78709506988525,-1.18823981285095,9.47400856018066,-8.82528305053711,2.86622071266174,1.26976180076599
415,1967212357,-0.10055265575647,-0.30991458892822,-116.44625854492188,-1.01295590400696,1.79667842388153,11.54675006866455,7.38421249389648,4.09006786346436,-0.90272241830826
416,1967220690,-0.10907091200352,-0.30949541926384,-116.44206237792969,0.53356546163559,-1.06860136985779,7.02472686767578,-1.64763569831848,3.60032391548157,0.81866937875748
417,1967229023,-0.16553759574890,-0.31471186876297,-116.43747711181641,0.43270769715309,-0.57544380426407,10.36259269714355,-7.39874935150146,2.91642451286316,0.87194710969925
418,1967237356,-0.09119626879692,-0.30946135520935,-116.44726562500000,-0.98168265819550,1.71534156799316,10.95705699920654,8.28842163085938,4.18320226669312,-0.85948574542999
419,1967245689,-0.12401431798935,-0.31059274077415,-116.44069671630859,0.87427872419357,-1.60327625274658,6.85248613357544,-4.55956459045410,3.40798687934875,1.10593307018280
420,1967254022,-0.15784479677677,-0.31482666730881,-116.43957519531250,-0.00257290923037,0.21203973889351,11.28956699371338,-4.68704605102539,3.04236912727356,0.44639211893082
421,1967262355,-0.08532571792603,-0.30936893820763,-116.44707489013672,-0.80318504571915,1.35704970359802,10.06008243560791,8.07216072082520,4.20013332366943,-0.57844632863998
422,1967270688,-0.13952451944351,-0.31242147088051,-116.43825531005859,1.09248173236847,-1.94724571704865,7.01542186737061,-7.12506103515625,3.18417000770569,1.37406301498413
423,1967279021,-0.14198572933674,-0.31501367688179,-116.44114685058594,-0.52598023414612,1.04369342327118,12.03032016754150,-0.92500698566437,3.23299074172974,-0.02958444505930
424,1967287354,-0.08588233590126,-0.30963176488876,-116.44553375244141,-0.41045907139778,0.59482395648956,8.87424182891846,6.10304069519043,4.19931364059448,-0.20801320672035
425,1967295687,-0.15295030176640,-0.31438773870468,-116.43670654296875,1.13678300380707,-1.93619787693024,7.79693651199341,-8.66788387298584,2.97049593925476,1.38041543960571
426,1967304020,-0.11998450756073,-0.31334498524666,-116.44408416748047,-0.94098210334778,1.76654636859894,12.26548194885254,3.32281970977783,3.67913961410522,-0.56858485937119
427,1967312353,-0.09629282355309,-0.31032037734985,-116.44351196289062,0.12390394508839,-0.34280857443810,7.77311754226685,2.21923041343689,3.90692663192749,0.39088606834412
428,1967320686,-0.16022084653378,-0.31567907333374,-116.43665313720703,0.85192000865936,-1.35398411750793,9.09250926971436,-8.29437637329102,2.90792012214661,1.13743853569031
429,1967329019,-0.09881775826216,-0.31151396036148,-116.44591522216797,-1.15789628028870,2.06539583206177,11.82811641693115,6.73604583740234,4.04706239700317,-0.79427194595337
430,1967337352,-0.11518882215023,-0.31192657351494,-116.44009399414062,0.70496982336044,-1.30899596214294,7.01692819595337,-2.58780646324158,3.49953246116638,1.01459264755249
431,1967345685,-0.15605643391609,-0.31611075997353,-116.43786621093750,0.30401027202606,-0.40430629253387,10.48961734771729,-5.52926778793335,3.04242038726807,0.58496510982513
432,1967354018,-0.08388937264681,-0.31143280863762,-116.44662475585938,-0.99102586507797,1.76927399635315,10.59086036682129,8.02701473236084,4.11497831344604,-0.73272085189819
433,1967362351,-0.13836908340454,-0.31389531493187,-116.43737792968750,1.07475316524506,-1.90714824199677,7.06878089904785,-7.15646505355835,3.24631023406982,1.42752015590668
434,1967370684,-0.14074514806271,-0.31562101840973,-116.43991851806641,-0.35603386163712,0.70015972852707,11.64726352691650,-0.91476136445999,3.34507846832275,0.01095008663833
435,1967379017,-0.08263289183378,-0.31078773736954,-116.44573974609375,-0.52063810825348,0.86682516336441,9.01816177368164,6.34414720535278,4.12608194351196,-0.37138083577156
436,1967387350,-0.15831899642944,-0.31582024693489,-116.43550872802734,1.06666862964630,-1.87313163280487,8.00943851470947,-9.70351791381836,2.94444608688354,1.54278409481049
437,1967395683,-0.11840713024139,-0.31443652510643,-116.44403076171875,-0.89513671398163,1.63444125652313,12.03777027130127,4.15809965133667,3.71177148818970,-0.70562106370926
438,1967404016,-0.09654256701469,-0.31097623705864,-116.44314575195312,0.18956594169140,-0.42527467012405,7.54927921295166,1.99782073497772,3.96758127212524,0.42257085442543
439,1967412349,-0.16637820005417,-0.31662642955780,-116.43616485595703,0.67470288276672,-1.09067702293396,9.54568767547607,-9.00217533111572,2.86447858810425,1.15685439109802
440,1967420682,-0.09698493033648,-0.31231251358986,-116.44622802734375,-1.05515527725220,1.92149281501770,11.47682476043701,7.69306945800781,4.07062721252441,-0.89119613170624
441,1967429015,-0.12175675481558,-0.31215745210648,-116.44041442871094,0.89668887853622,-1.60929906368256,6.71531200408936,-3.59383130073547,3.56172323226929,1.02271234989166
442,1967437348,-0.15464898943901,-0.31510105729103,-116.43962860107422,-0.07199756801128,0.22564575076103,11.27133560180664,-4.57480478286743,3.19759154319763,0.40620332956314
443,1967445681,-0.08549284189939,-0.30984276533127,-116.44734954833984,-0.68863666057587,1.35462164878845,9.78518009185791,7.66814613342285,4.17728376388550,-0.60603278875351
444,1967454014,-0.16238880157471,-0.31662771105766,-116.43852233886719,1.11285924911499,-2.34070158004761,7.94524574279785,-9.84831523895264,2.73412752151489,1.37173211574554
445,1967462347,-0.08410477638245,-0.30969160795212,-116.44634246826172,-0.91700661182404,2.36950898170471,10.90354251861572,8.76269435882568,4.38022661209106,-0.62163192033768
446,1967470680,-0.15166613459587,-0.31615066528320,-116.44273376464844,0.30380874872208,-1.73592758178711,9.06787872314453,-8.73204803466797,2.77528977394104,0.75061237812042
447,1967479013,-0.11589639633894,-0.31663098931313,-116.44090270996094,0.71609407663345,0.05398100242019,8.96978282928467,3.66671633720398,3.48595643043518,0.53437691926956
448,1967487346,-0.10381094366312,-0.31163761019707,-116.44209289550781,-0.66029649972916,1.26642751693726,9.91700839996338,0.82274210453033,4.14969873428345,0.17470189929008
449,1967495679,-0.12328458577394,-0.31130936741829,-116.44358062744141,-0.35514178872108,-0.01879225485027,9.84400844573975,-2.96451497077942,3.58531451225281,0.13774055242538
450,1967504012,-0.13690681755543,-0.31302890181541,-116.44468688964844,0.06903804838657,-0.51197522878647,9.55097961425781,-2.26135277748108,3.34415602684021,0.18443529307842
451,1967512345,-0.14159917831421,-0.31504371762276,-116.44543457031250,0.16854465007782,-0.37597990036011,9.38276290893555,-1.19024229049683,3.30391621589661,0.21919383108616
452,1967520678,-0.14104384183884,-0.31630036234856,-116.44548034667969,0.05772926658392,-0.09893045574427,9.46240425109863,-0.56077247858047,3.40089178085327,0.31081598997116
453,1967529011,-0.13937243819237,-0.31430739164352,-116.44672393798828,-0.02688775397837,0.17042341828346,9.52235603332520,-0.42660504579544,3.78261995315552,0.17413835227489
454,1967537344,-0.13501437008381,-0.31175500154495,-116.44786834716797,0.04877239465714,0.34396165609360,9.47979640960693,-0.10522327572107,3.85836148262024,0.17841595411301
455,1967545677,-0.12344995141029,-0.31148752570152,-116.44601440429688,0.17583337426186,0.24458125233650,9.42989826202393,0.76326566934586,3.57532405853271,0.54346990585327
456,1967554010,-0.11137106269598,-0.31542029976845,-116.44178009033203,0.30231305956841,-0.30114325881004,9.32478618621826,0.82568758726120,3.07743477821350,0.82327991724014
457,1967562343,-0.11583843827248,-0.32103526592255,-116.43891143798828,0.01771050505340,-0.81333607435226,9.40643787384033,-1.16081142425537,2.86967802047729,0.65724843740463
458,1967570676,-0.13423785567284,-0.31718385219574,-116.44532775878906,-0.34527477622032,0.01939816959202,9.69740581512451,-2.83872342109680,4.01691389083862,-0.45239865779877
459,1967579009,-0.12872527539730,-0.30973961949348,-116.45065307617188,0.19199720025063,0.76582151651382,9.52174758911133,0.03272218629718,4.43826866149902,-0.32427626848221
460,1967587342,-0.11598860472441,-0.31981676816940,-116.44387817382812,0.37790116667747,-0.54289203882217,9.26269912719727,0.90509176254272,2.34151268005371,1.12785887718201
461,1967595675,-0.13293121755123,-0.31917515397072,-116.44491577148438,-0.54171794652939,-0.11064719408751,9.85235214233398,-2.65967965126038,3.61991930007935,0.18661251664162
462,1967604008,-0.12154433876276,-0.31058511137962,-116.44799041748047,0.38241681456566,0.44910976290703,9.35999107360840,0.73734420537949,4.58350086212158,-0.05025513097644
463,1967612341,-0.12790663540363,-0.32418644428253,-116.44150543212891,-0.00779714016244,-0.56052476167679,9.44208431243896,-1.38621664047241,1.90975892543793,1.09023153781891
464,1967620674,-0.12302073836327,-0.31225919723511,-116.44821166992188,-0.14930447936058,0.49664622545242,9.66426658630371,-0.04459438100457,4.98372364044189,-0.48311012983322
465,1967629007,-0.12841297686100,-0.32120868563652,-116.44420623779297,0.21844066679478,-0.53140914440155,9.32388782501221,-1.26962089538574,2.47037768363953,0.79597514867783
466,1967637340,-0.11990711838007,-0.31421405076981,-116.44779968261719,-0.07027746737003,0.41974574327469,9.67906379699707,0.39060431718826,4.39077949523926,-0.11354790627956
467,1967645673,-0.13091973960400,-0.31976398825645,-116.44416809082031,0.03779690712690,-0.35657232999802,9.47249412536621,-1.94481182098389,2.87800240516663,0.74989509582520
468,1967654006,-0.11906188726425,-0.31731891632080,-116.44539642333984,0.08619829267263,0.10081041604280,9.49257278442383,0.79418212175369,3.84452986717224,0.17019376158714
469,1967662339,-0.12752556800842,-0.31826984882355,-116.44386291503906,-0.07124602049589,0.02785714343190,9.60090160369873,-1.64025855064392,3.43175673484802,0.50468999147415
470,1967670672,-0.12504293024540,-0.31875631213188,-116.44448089599609,0.04757418110967,-0.14445877075195,9.44121551513672,-0.33021873235703,3.49228334426880,0.24252839386463
471,1967679005,-0.12343095242977,-0.31822952628136,-116.44326782226562,0.01542136259377,0.02981269732118,9.51206970214844,-0.43049842119217,3.60690689086914,0.46542343497276
472,1967687338,-0.12459511309862,-0.31719201803207,-116.44297790527344,0.01801937632263,-0.00766974128783,9.51871585845947,-0.76686453819275,3.67637252807617,0.35182431340218
473,1967695671,-0.12662272155285,-0.31733351945877,-116.44228363037109,0.02857754193246,-0.03122931346297,9.50275707244873,-0.86914205551147,3.52581167221069,0.40243798494339
474,1967704004,-0.12661798298359,-0.31787121295929,-116.44164276123047,0.04573448374867,-0.03413212299347,9.50889682769775,-0.62619119882584,3.48774981498718,0.39290955662727
475,1967712337,-0.12590797245502,-0.31850504875183,-116.44216156005859,0.01529230736196,-0.02106381207705,9.53521442413330,-0.54130572080612,3.46687412261963,0.25797379016876
476,1967720670,-0.12669329345226,-0.31762644648552,-116.44147491455078,0.03531952202320,-0.00688820704818,9.49509906768799,-0.72173219919205,3.65657258033752,0.39972287416458
477,1967729003,-0.12656138837337,-0.31794959306717,-116.44190979003906,0.02675878070295,-0.01092446781695,9.51294326782227,-0.61054092645645,3.50685763359070,0.27031984925270
478,1967737336,-0.12708604335785,-0.31787383556366,-116.44210815429688,0.01252103783190,-0.01614929921925,9.48895740509033,-0.69043171405792,3.56039166450500,0.29024770855904
479,1967745669,-0.12755158543587,-0.31822606921196,-116.44251251220703,0.01995748467743,-0.00870375428349,9.46888065338135,-0.68167167901993,3.50214457511902,0.26873174309731
480,1967754002,-0.12789529561996,-0.31805464625359,-116.44268035888672,0.02522598020732,-0.03001277707517,9.52169799804688,-0.66822409629822,3.57163596153259,0.29583159089088
481,1967762335,-0.12743219733238,-0.31878358125687,-116.44280242919922,0.01749153435230,-0.02131664752960,9.47691822052002,-0.57091569900513,3.45714092254639,0.30126181244850
482,1967770668,-0.12705202400684,-0.31899046897888,-116.44268035888672,0.01325668022037,-0.03171792626381,9.52034282684326,-0.58187860250473,3.52688837051392,0.33117929100990
483,1967779001,-0.12746986746788,-0.31952762603760,-116.44219970703125,0.03407372906804,-0.02793245017529,9.50110626220703,-0.67611336708069,3.47855424880981,0.37567117810249
484,1967787334,-0.12690934538841,-0.31996855139732,-116.44268035888672,0.03138168901205,-0.03350688144565,9.52707862854004,-0.55882579088211,3.49904561042786,0.25968992710114
485,1967795667,-0.12591831386089,-0.31935864686966,-116.44166564941406,0.03122884035110,-0.02785224281251,9.49765205383301,-0.50659829378128,3.61679363250732,0.43683791160583
486,1967804000,-0.12525269389153,-0.31935802102089,-116.44171142578125,0.02743109315634,-0.02218106016517,9.52725601196289,-0.54755550622940,3.55237436294556,0.31207105517387
487,1967812333,-0.12542769312859,-0.32054534554482,-116.44086456298828,0.00958917662501,-0.01922738552094,9.52821636199951,-0.64670830965042,3.40107107162476,0.42123892903328
488,1967820666,-0.12553779780865,-0.32093474268913,-116.44053649902344,0.01089827436954,-0.03782660514116,9.48979854583740,-0.64033025503159,3.50550007820129,0.35466751456261
489,1967828999,-0.12549507617950,-0.32075062394142,-116.44081878662109,0.03094195574522,-0.02713372372091,9.51573181152344,-0.62042802572250,3.56523275375366,0.27892622351646
490,1967837332,-0.12472499161959,-0.32080048322678,-116.44034576416016,0.05102617293596,-0.02469205670059,9.50996589660645,-0.53561919927597,3.54614973068237,0.37364763021469
491,1967845665,-0.12478139251471,-0.32092711329460,-116.44061279296875,0.02896414697170,-0.02247644215822,9.48374366760254,-0.63318389654160,3.52722144126892,0.28420275449753
492,1967853998,-0.12508459389210,-0.32154107093811,-116.44057464599609,0.03259417042136,-0.00687444675714,9.48698043823242,-0.66253781318665,3.47829771041870,0.31955036520958
493,1967862331,-0.12466266751289,-0.32158786058426,-116.44100952148438,0.02359596081078,-0.00622076587752,9.53485965728760,-0.57516765594482,3.53797936439514,0.27101141214371
494,1967870664,-0.12443950027227,-0.32126206159592,-116.44062805175781,0.02808769419789,-0.02926116064191,9.46954822540283,-0.60114043951035,3.59051299095154,0.36055871844292
495,1967878997,-0.12428770959377,-0.32145822048187,-116.44086456298828,0.03066625073552,-0.01610561273992,9.51064682006836,-0.60780018568039,3.52012610435486,0.28976103663445
496,1967887330,-0.12379224598408,-0.32216241955757,-116.44080352783203,0.03515131026506,-0.01155104674399,9.51027679443359,-0.56822621822357,3.46579837799072,0.32247042655945
497,1967895663,-0.12454336136580,-0.32234686613083,-116.44021606445312,0.02083423733711,-0.03925326839089,9.52820396423340,-0.71555930376053,3.52373766899109,0.38901621103287
498,1967903996,-0.12477330863476,-0.32278785109520,-116.44019317626953,0.00822311826050,-0.03360961377621,9.50158500671387,-0.65421319007874,3.49909687042236,0.31826969981194
499,1967912329,-0.12497486919165,-0.32326889038086,-116.43969726562500,0.02502930909395,-0.03459758311510,9.50615406036377,-0.65126758813858,3.48498344421387,0.37590172886848
500,1967920662,-0.12463606894016,-0.32348516583443,-116.43936157226562,0.02201330475509,-0.01562497392297,9.49582481384277,-0.58528530597687,3.52540254592896,0.35822793841362
501,1967928995,-0.12460990250111,-0.32421860098839,-116.43900299072266,0.01468809880316,-0.03511820361018,9.54567909240723,-0.62219542264938,3.45621848106384,0.35666543245316
502,1967937328,-0.12484632432461,-0.32451671361923,-116.43933105468750,0.03107470460236,-0.04760835319757,9.53193378448486,-0.65687704086304,3.51464414596558,0.27713319659233
503,1967945661,-0.12522327899933,-0.32455232739449,-116.43927764892578,0.04269308224320,-0.01866837590933,9.49374103546143,-0.67132353782654,3.54002833366394,0.32451957464218
504,1967953994,-0.12535028159618,-0.32436448335648,-116.43891906738281,0.02183949016035,-0.01247737463564,9.48019695281982,-0.64097058773041,3.57319831848145,0.35871452093124
505,1967962327,-0.12539851665497,-0.32479310035706,-116.43941497802734,0.01878506876528,-0.02701972797513,9.51578617095947,-0.63238996267319,3.49248838424683,0.25997170805931
506,1967970660,-0.12561145424843,-0.32454904913902,-116.43971252441406,0.02460918761790,-0.03488931059837,9.53054523468018,-0.65426433086395,3.58019065856934,0.28089848160744
507,1967978993,-0.12547241151333,-0.32366296648979,-116.43971252441406,0.02298310212791,-0.02489317581058,9.52765560150146,-0.60836368799210,3.65121936798096,0.31947350502014
508,1967987326,-0.12531641125679,-0.32284760475159,-116.43972778320312,0.01275671087205,-0.02894034422934,9.47826862335205,-0.60890156030655,3.64942646026611,0.31463244557381
509,1967995659,-0.12599764764309,-0.32298752665520,-116.43959045410156,0.01284366101027,-0.01170878019184,9.47478866577148,-0.70792621374130,3.52665781974792,0.33686563372612
510,1968003992,-0.12548141181469,-0.32360440492630,-116.44024658203125,0.03090945445001,-0.02118277549744,9.50376701354980,-0.56545990705490,3.47801613807678,0.23819959163666
511,1968012325,-0.12609185278416,-0.32353332638741,-116.44062805175781,0.02382398396730,-0.00485637551174,9.52632617950439,-0.69865393638611,3.55178523063660,0.26791208982468
512,1968020658,-0.12641210854053,-0.32371795177460,-116.44036865234375,0.03166735172272,-0.00516206957400,9.48984146118164,-0.66543227434158,3.52952647209167,0.34880185127258
513,1968028991,-0.12656149268150,-0.32428106665611,-116.44086456298828,0.00915602315217,-0.01305325981230,9.49569320678711,-0.64570933580399,3.47694039344788,0.25835803151131
514,1968037324,-0.12624295055866,-0.32479232549667,-116.44010925292969,0.01408463064581,-0.03648417815566,9.54290962219238,-0.58715516328812,3.48992705345154,0.40530687570572
515,1968045657,-0.12559463083744,-0.32454183697701,-116.43959045410156,0.00919438246638,-0.03461370617151,9.50726699829102,-0.54781162738800,3.57499146461487,0.38184419274330
516,1968053990,-0.12560245394707,-0.32490044832230,-116.43991851806641,0.02114486321807,-0.02123382687569,9.49766921997070,-0.62865012884140,3.50808691978455,0.27595496177673
517,1968062323,-0.12596750259399,-0.32512533664703,-116.44023132324219,0.01256536506116,-0.02340930700302,9.51536273956299,-0.67119550704956,3.51817941665649,0.27861887216568
518,1968070656,-0.12549494206905,-0.32492756843567,-116.44033050537109,0.03051846288145,-0.03826810792089,9.48279380798340,-0.57073634862900,3.57542681694031,0.30520638823509
519,1968078989,-0.12520760297775,-0.32464599609375,-116.43964385986328,0.03198027238250,-0.03488804027438,9.50382614135742,-0.59081786870956,3.57673287391663,0.39631617069244
520,1968087322,-0.12523515522480,-0.32385957241058,-116.43986511230469,0.02659412473440,-0.03685890883207,9.52829170227051,-0.63082736730576,3.64640450477600,0.29245054721832
521,1968095655,-0.12460826337337,-0.32373479008675,-116.43917083740234,0.02530748397112,-0.01679291576147,9.49139881134033,-0.55075734853745,3.55816340446472,0.40230998396873
522,1968103988,-0.12435832619667,-0.32379892468452,-116.43936920166016,0.03862183541059,-0.02334002777934,9.48959255218506,-0.59691417217255,3.54376816749573,0.29193827509880
523,1968112321,-0.12386374920607,-0.32421243190765,-116.43900299072266,0.03466745093465,-0.03866608813405,9.49539089202881,-0.56584411859512,3.49645829200745,0.35689592361450
524,1968120654,-0.12426195293665,-0.32392150163651,-116.43945312500000,0.01545211486518,-0.01085929386318,9.53138923645020,-0.67539614439011,3.58495545387268,0.26325029134750
525,1968128987,-0.12508805096149,-0.32409062981606,-116.43950653076172,0.02890945412219,-0.01281532645226,9.50324535369873,-0.72503650188446,3.52325057983398,0.31368467211723
526,1968137320,-0.12560357153416,-0.32455015182495,-116.43948364257812,0.01508481428027,-0.03058935515583,9.48869991302490,-0.68845933675766,3.49658632278442,0.31850016117096
527,1968145653,-0.12579852342606,-0.32510587573051,-116.43917083740234,0.02078857645392,-0.02941296808422,9.50329875946045,-0.64996117353439,3.47694015502930,0.35768994688988
528,1968153986,-0.12546475231647,-0.32540199160576,-116.43914031982422,0.01013691350818,-0.02218193188310,9.52862548828125,-0.58764183521271,3.51543879508972,0.31947356462479
529,1968162319,-0.12491719424725,-0.32536634802818,-116.43964385986328,0.03313844278455,-0.02565058507025,9.50983905792236,-0.55985033512115,3.55047893524170,0.25028946995735
530,1968170652,-0.12522423267365,-0.32585096359253,-116.43950653076172,0.03170433640480,-0.03571292012930,9.50937366485596,-0.66392099857330,3.49292373657227,0.33251118659973
531,1968178985,-0.12604713439941,-0.32649314403534,-116.43997192382812,0.03002263605595,-0.01461172476411,9.51380252838135,-0.72536957263947,3.46602892875671,0.26491522789001
532,1968187318,-0.12539710104465,-0.32733005285263,-116.43967437744141,0.03683524578810,-0.02364451996982,9.48919010162354,-0.55011689662933,3.45094180107117,0.35284888744354
533,1968195651,-0.12625177204609,-0.32708641886711,-116.43994903564453,0.03186158835888,-0.02243999578059,9.49669361114502,-0.72759789228439,3.57486343383789,0.28353676199913
534,1968203984,-0.12692849338055,-0.32811889052391,-116.43945312500000,0.03287531435490,-0.03579600527883,9.51820850372314,-0.70797753334045,3.42745375633240,0.37403190135956
535,1968212317,-0.12730170786381,-0.32833737134933,-116.43926239013672,0.02541193366051,-0.05350738018751,9.50610256195068,-0.67106735706329,3.51733422279358,0.34119442105293
536,1968220650,-0.12816137075424,-0.32914415001869,-116.43952178955078,0.03534791618586,-0.04237634688616,9.48599243164062,-0.73146569728851,3.45598793029785,0.28540664911270
537,1968228983,-0.12813514471054,-0.32925504446030,-116.43941497802734,0.02517045661807,-0.02239887230098,9.51277065277100,-0.62268203496933,3.52980780601501,0.32961678504944
538,1968237316,-0.12940952181816,-0.32902425527573,-116.43882751464844,0.01202010456473,-0.02880922518671,9.50898456573486,-0.77979969978333,3.57937145233154,0.38591685891151
539,1968245649,-0.12930433452129,-0.32871386408806,-116.43852233886719,0.02835208363831,-0.01876391470432,9.52125549316406,-0.61305105686188,3.58093404769897,0.35607627034187
540,1968253982,-0.12945243716240,-0.32911494374275,-116.43870544433594,0.03193020820618,-0.02265227213502,9.48036861419678,-0.64447987079620,3.50286221504211,0.29432040452957
541,1968262315,-0.12971372902393,-0.32855495810509,-116.43855285644531,0.02993164956570,-0.00213058572263,9.52977371215820,-0.65636467933655,3.61044096946716,0.33205011487007
542,1968270648,-0.13020157814026,-0.32869535684586,-116.43993377685547,0.01479445770383,-0.00694349687546,9.51695251464844,-0.68794709444046,3.53582763671875,0.15157224237919
543,1968278981,-0.13021799921989,-0.32873517274857,-116.44021606445312,0.02594703808427,-0.01754287630320,9.50464534759521,-0.62708771228790,3.54023337364197,0.28392100334167
544,1968287314,-0.13020560145378,-0.32921785116196,-116.43986511230469,0.02850708737969,-0.02630458399653,9.48654937744141,-0.62503862380981,3.49325680732727,0.35843282938004
545,1968295647,-0.13010121881962,-0.32901337742805,-116.43982696533203,0.01768836192787,-0.01933197490871,9.50251865386963,-0.61484408378601,3.56840872764587,0.32193252444267
546,1968303980,-0.13067305088043,-0.32818078994751,-116.43964385986328,0.02613877132535,-0.04411475360394,9.50603866577148,-0.69524705410004,3.65147519111633,0.33540555834770
547,1968312313,-0.13102011382580,-0.32816034555435,-116.43982696533203,0.02807196602225,-0.03084023483098,9.49312973022461,-0.66876208782196,3.54527926445007,0.29457652568817
548,1968320646,-0.13108384609222,-0.32850915193558,-116.43962860107422,0.02893771603703,-0.03204288706183,9.48455238342285,-0.63351690769196,3.50916314125061,0.33768528699875
549,1968328979,-0.13077597320080,-0.32923042774200,-116.43962860107422,0.02863099239767,-0.02459107898176,9.52640438079834,-0.58974224328995,3.45906186103821,0.31755250692368
550,1968337312,-0.13026933372021,-0.32997617125511,-116.43934631347656,0.03422772511840,-0.01744361035526,9.48315429687500,-0.56666380167007,3.46085476875305,0.35154262185097
551,1968345645,-0.13002511858940,-0.32962653040886,-116.43900299072266,0.04078339040279,-0.03481816500425,9.48507308959961,-0.59619688987732,3.58462214469910,0.35955974459648
552,1968353978,-0.13035646080971,-0.32972168922424,-116.43926239013672,0.04155913367867,-0.03574700281024,9.48584270477295,-0.66653364896774,3.53972101211548,0.28284519910812
553,1968362311,-0.13086487352848,-0.32920482754707,-116.43872833251953,0.02443848550320,-0.03615021333098,9.49941635131836,-0.68620520830154,3.60516476631165,0.38117820024490
554,1968370644,-0.12974557280540,-0.32917422056198,-116.43955230712891,0.00034642312676,-0.03292116150260,9.50674247741699,-0.49299713969231,3.55555009841919,0.21832291781902
555,1968378977,-0.12871129810810,-0.32924404740334,-116.44017791748047,0.00732374703512,-0.02247307635844,9.51913356781006,-0.50296115875244,3.53595566749573,0.23597116768360
556,1968387310,-0.12876252830029,-0.32985308766365,-116.44057464599609,0.01187170296907,-0.02567808516324,9.50057888031006,-0.63372182846069,3.47801613807678,0.26885983347893
557,1968395643,-0.12891937792301,-0.32955473661423,-116.44116210937500,0.00725132599473,-0.01737302914262,9.50035667419434,-0.64483833312988,3.57985830307007,0.24731823801994
558,1968403976,-0.12913846969604,-0.32999259233475,-116.44113159179688,0.03305667638779,-0.02224427275360,9.50575542449951,-0.65336787700653,3.49832797050476,0.31988334655762
559,1968412309,-0.12903362512589,-0.33018952608109,-116.44112396240234,0.01221907045692,-0.01572845317423,9.49934101104736,-0.61374270915985,3.52094602584839,0.31921741366386
560,1968420642,-0.12925584614277,-0.32971879839897,-116.44073486328125,0.03873577341437,-0.00584790762514,9.50620841979980,-0.65339350700378,3.60731673240662,0.36312016844749
561,1968428975,-0.12894268333912,-0.33009219169617,-116.44109344482422,0.04816159233451,-0.02803561463952,9.46664619445801,-0.58830779790878,3.49871253967285,0.27590376138687
562,1968437308,-0.12879537045956,-0.32994756102562,-116.44152832031250,0.04276351630688,-0.00262825004756,9.49046516418457,-0.61025917530060,3.56943368911743,0.26401874423027
563,1968445641,-0.12885956466198,-0.32949429750443,-116.44200897216797,0.05591092631221,-0.03257826715708,9.51005935668945,-0.63336318731308,3.59750628471375,0.26091939210892
564,1968453974,-0.12972418963909,-0.32957905530930,-116.44229888916016,0.03974617272615,-0.01213498506695,9.47819805145264,-0.73241353034973,3.54243636131287,0.28064239025116
565,1968462307,-0.12866070866585,-0.32916370034218,-116.44240570068359,0.03568958118558,-0.03255995735526,9.50454807281494,-0.49791508913040,3.59338259696960,0.30113372206688
566,1968470640,-0.12867058813572,-0.32949912548065,-116.44159698486328,0.03268551826477,-0.02739777415991,9.52456760406494,-0.62821477651596,3.50995707511902,0.41288864612579
567,1968478973,-0.12878118455410,-0.32935431599617,-116.44158172607422,0.02560221217573,-0.03559162095189,9.52329349517822,-0.63817858695984,3.56162071228027,0.31775736808777
568,1968487306,-0.12869228422642,-0.32930222153664,-116.44174957275391,0.01662086322904,-0.06248889863491,9.50409126281738,-0.61702132225037,3.55783009529114,0.29777830839157
569,1968495639,-0.12882848083973,-0.32938033342361,-116.44204711914062,0.02822946570814,-0.03986988216639,9.50054645538330,-0.64327591657639,3.53472614288330,0.28233292698860
570,1968503972,-0.12901476025581,-0.32923036813736,-116.44269561767578,0.02446138858795,-0.03332954645157,9.50578212738037,-0.65003812313080,3.56884455680847,0.24140140414238
571,1968512305,-0.12908899784088,-0.32891094684601,-116.44259643554688,0.02074117958546,-0.00690101040527,9.49944591522217,-0.63400352001190,3.58270144462585,0.32544165849686
572,1968520638,-0.12801130115986,-0.32934743165970,-116.44262695312500,0.02556616254151,-0.01875550299883,9.50345134735107,-0.49745410680771,3.49901986122131,0.31391528248787
573,1968528971,-0.12759852409363,-0.33002901077271,-116.44252777099609,0.03205353766680,-0.01757956668735,9.51437568664551,-0.57683265209198,3.46193051338196,0.33138418197632
574,1968537304,-0.12814684212208,-0.33017474412918,-116.44281768798828,0.03036595322192,-0.03363969177008,9.49179172515869,-0.69442754983902,3.53308701515198,0.28036060929298
575,1968545637,-0.12873302400112,-0.33036676049232,-116.44341278076172,0.02227973192930,-0.01782195642591,9.50322151184082,-0.69624620676041,3.52273893356323,0.24281015992165
576,1968553970,-0.12790207564831,-0.33059647679329,-116.44319915771484,0.01899129152298,-0.02034249901772,9.51229095458984,-0.52742278575897,3.52232909202576,0.34449866414070
577,1968562303,-0.12761533260345,-0.33071085810661,-116.44288635253906,0.01263433508575,-0.01167295780033,9.52354049682617,-0.59194499254227,3.53114008903503,0.35840719938278
578,1968570636,-0.12776163220406,-0.33169832825661,-116.44322204589844,0.01980030536652,-0.03682480752468,9.51067352294922,-0.64476150274277,3.43349838256836,0.27364966273308
579,1968578969,-0.12747533619404,-0.33172494173050,-116.44299316406250,0.02296587824821,-0.02470390126109,9.52204608917236,-0.59140712022781,3.53908061981201,0.34516465663910
580,1968587302,-0.12752126157284,-0.33190137147903,-116.44306182861328,0.02515283226967,-0.01518678572029,9.49824428558350,-0.63251793384552,3.53073048591614,0.30940717458725
581,1968595635,-0.12767991423607,-0.33276313543320,-116.44296264648438,0.01329342834651,-0.02848921157420,9.51276111602783,-0.64478707313538,3.44038867950439,0.32790061831474
582,1968603968,-0.12786261737347,-0.33334749937057,-116.44347381591797,0.02024241909385,-0.04798247292638,9.50730323791504,-0.64919281005859,3.48075675964355,0.25546357035637
583,1968612301,-0.12799042463303,-0.33260518312454,-116.44225311279297,0.02747963182628,-0.03202896937728,9.53091812133789,-0.64135479927063,3.63246917724609,0.46060788631439
584,1968620634,-0.12803070247173,-0.33286169171333,-116.44223785400391,0.03837420791388,-0.02595475688577,9.52609920501709,-0.63180065155029,3.52061247825623,0.31770613789558
585,1968628967,-0.12801066040993,-0.33205652236938,-116.44226837158203,0.01607741415501,-0.04672620072961,9.52399921417236,-0.62298941612244,3.64053821563721,0.31245523691177
586,1968637300,-0.12789228558540,-0.33282306790352,-116.44223785400391,0.03106451593339,-0.04272288829088,9.51106166839600,-0.61399883031845,3.45942044258118,0.32008832693100
587,1968645633,-0.12832324206829,-0.33277800679207,-116.44200897216797,0.02040971815586,-0.03622930496931,9.50826358795166,-0.67662572860718,3.54901909828186,0.34770047664642
588,1968653966,-0.12795838713646,-0.33241391181946,-116.44123077392578,0.01585756801069,-0.02038906887174,9.51905059814453,-0.58374834060669,3.59481644630432,0.40830367803574
589,1968662299,-0.12744478881359,-0.33250474929810,-116.44171142578125,0.00948742125183,-0.03207944333553,9.52321147918701,-0.56415355205536,3.53385543823242,0.26071450114250
590,1968670632,-0.12761497497559,-0.33306378126144,-116.44252777099609,0.02103063650429,-0.02384919114411,9.53133106231689,-0.64878296852112,3.48472738265991,0.21916821599007
591,1968678965,-0.12740013003349,-0.33283844590187,-116.44282531738281,0.01973447948694,-0.02341535128653,9.50840473175049,-0.59960365295410,3.57045817375183,0.28486871719360
592,1968687298,-0.12772266566753,-0.33297672867775,-116.44295501708984,0.01735880225897,-0.02651310898364,9.49128818511963,-0.66612380743027,3.53487992286682,0.29913583397865
593,1968695631,-0.12696811556816,-0.33367365598679,-116.44342803955078,0.02830886095762,-0.00488926889375,9.52716445922852,-0.53631085157394,3.46095681190491,0.26573485136032
594,1968703964,-0.12784710526466,-0.33425581455231,-116.44368743896484,0.02981988899410,-0.02447527274489,9.51157665252686,-0.73218291997910,3.48085904121399,0.28228166699409
595,1968712297,-0.12866728007793,-0.33429616689682,-116.44342803955078,0.02002083137631,-0.01984921470284,9.51420783996582,-0.72424256801605,3.53892707824707,0.35015943646431
596,1968720630,-0.12847149372101,-0.33407041430473,-116.44293975830078,0.03740274906158,-0.03780611604452,9.50513362884521,-0.60339450836182,3.57914113998413,0.37405747175217
597,1968728963,-0.12827587127686,-0.33370581269264,-116.44323730468750,0.02342987060547,-0.03502302244306,9.49546813964844,-0.60306155681610,3.58638978004456,0.28020691871643
598,1968737296,-0.12804293632507,-0.33431211113930,-116.44363403320312,0.01799207367003,-0.02816237509251,9.51398563385010,-0.60009038448334,3.47924590110779,0.26780965924263
599,1968745629,-0.12856428325176,-0.33445319533348,-116.44349670410156,0.01938546821475,-0.03682669252157,9.49637413024902,-0.68784469366074,3.52660655975342,0.33397123217583
600,1968753962,-0.12857644259930,-0.33457189798355,-116.44432830810547,0.01177307125181,-0.03779517859221,9.49127292633057,-0.63008457422256,3.53644227981567,0.21717031300068
601,1968762295,-0.12767219543457,-0.33513224124908,-116.44406890869141,0.01357273478061,-0.03171597048640,9.47515869140625,-0.51768934726715,3.47901535034180,0.34816151857376
602,1968770628,-0.12796482443810,-0.33500367403030,-116.44392395019531,0.03409826382995,-0.03598168864846,9.50442695617676,-0.66112899780273,3.56561660766602,0.33466279506683
603,1968778961,-0.12784478068352,-0.33471462130547,-116.44403076171875,0.04151913523674,-0.01821452379227,9.53175735473633,-0.61256444454193,3.57962822914124,0.30418187379837
604,1968787294,-0.12775669991970,-0.33491170406342,-116.44415283203125,0.01696421764791,-0.03780991211534,9.49450683593750,-0.61648350954056,3.52693963050842,0.30172291398048
605,1968795627,-0.12807258963585,-0.33454275131226,-116.44399261474609,0.02816589921713,-0.03308866545558,9.51217842102051,-0.66381847858429,3.58846449851990,0.33960631489754
606,1968803960,-0.12816950678825,-0.33454465866089,-116.44493103027344,0.02367953956127,-0.02116103842854,9.51373577117920,-0.63920331001282,3.55076074600220,0.20303125679493
607,1968812293,-0.12815622985363,-0.33439993858337,-116.44474029541016,0.02963214553893,-0.00644145952538,9.47642898559570,-0.62493616342545,3.56159567832947,0.33502143621445
608,1968820626,-0.12802474200726,-0.33434206247330,-116.44509887695312,0.01374388486147,-0.01215887162834,9.50060176849365,-0.61182159185410,3.55759978294373,0.27475112676620
609,1968828959,-0.12665669620037,-0.33380740880966,-116.44444274902344,0.01825727894902,-0.02583959512413,9.50298500061035,-0.46044141054153,3.60980057716370,0.39029684662819
610,1968837292,-0.12646812200546,-0.33378070592880,-116.44477081298828,0.01779380813241,-0.04116806015372,9.50990676879883,-0.60513627529144,3.55411577224731,0.27587810158730
611,1968845625,-0.12616449594498,-0.33318799734116,-116.44527435302734,0.02408938854933,-0.02205726876855,9.50777244567871,-0.58946031332016,3.61459088325500,0.25928005576134
612,1968853958,-0.12593689560890,-0.33412238955498,-116.44499969482422,0.02900310046971,-0.02138834819198,9.50056266784668,-0.60037207603455,3.43938994407654,0.34726500511169
613,1968862291,-0.12589253485203,-0.33380910754204,-116.44496154785156,0.03498104959726,-0.00921284221113,9.51904678344727,-0.62106835842133,3.58070349693298,0.31975528597832
614,1968870624,-0.12608045339584,-0.33430847525597,-116.44456481933594,0.01946991495788,-0.00803049840033,9.52258396148682,-0.64957702159882,3.49082350730896,0.36391425132751
615,1968878957,-0.12580808997154,-0.33398285508156,-116.44451141357422,0.02865169942379,-0.02791484259069,9.49654293060303,-0.59296947717667,3.58359789848328,0.32080549001694
616,1968887290,-0.12560002505779,-0.33464372158051,-116.44434356689453,0.02102616429329,-0.02515208348632,9.49133968353271,-0.60265177488327,3.47189450263977,0.33566173911095
617,1968895623,-0.12556736171246,-0.33562719821930,-116.44463348388672,0.03913650661707,-0.03910825774074,9.49716567993164,-0.62140136957169,3.42560958862305,0.29152846336365
618,1968903956,-0.12510563433170,-0.33590289950371,-116.44475555419922,0.01310078054667,-0.03580502793193,9.50236701965332,-0.57211959362030,3.51887106895447,0.29995551705360
619,1968912289,-0.12536495923996,-0.33664941787720,-116.44536590576172,0.02338112704456,-0.04031863808632,9.51670932769775,-0.65751737356186,3.45501422882080,0.24642172455788
620,1968920622,-0.12480212748051,-0.33634033799171,-116.44506835937500,0.02460452355444,-0.04485474154353,9.51953792572021,-0.55915862321854,3.58810544013977,0.35266953706741
621,1968928955,-0.12453441321850,-0.33631634712219,-116.44454956054688,0.02411136031151,-0.02737866900861,9.52226257324219,-0.59417349100113,3.54740524291992,0.37221330404282
622,1968937288,-0.12533552944660,-0.33606711030006,-116.44458007812500,0.01039705239236,-0.02032756805420,9.54764556884766,-0.72332036495209,3.58093404769897,0.31465807557106
623,1968945621,-0.12545153498650,-0.33584150671959,-116.44432067871094,0.01182916015387,-0.01644858345389,9.51691055297852,-0.63999730348587,3.57053494453430,0.35100471973419
624,1968953954,-0.12596985697746,-0.33551356196404,-116.44448089599609,0.01703194528818,-0.02678576484323,9.51176071166992,-0.68835693597794,3.59181976318359,0.29706108570099
625,1968962287,-0.12618820369244,-0.33627390861511,-116.44468688964844,0.02116998098791,-0.02629498019814,9.49920082092285,-0.65221536159515,3.45327305793762,0.29206636548042
626,1968970620,-0.12565907835960,-0.33594796061516,-116.44484710693359,0.01167465746403,-0.02287784591317,9.52768898010254,-0.56515240669250,3.59053874015808,0.29578033089638
627,1968978953,-0.12530183792114,-0.33660408854485,-116.44602203369141,0.02902705036104,-0.01717671193182,9.50374507904053,-0.58341544866562,3.46474814414978,0.17979913949966
628,1968987286,-0.12562410533428,-0.33751147985458,-116.44648742675781,0.03187837079167,-0.01082765776664,9.50433254241943,-0.66627752780914,3.44307851791382,0.26030468940735
629,1968995619,-0.12575218081474,-0.33800920844078,-116.44658660888672,0.01054053101689,-0.02970821596682,9.50716018676758,-0.64163655042648,3.48416352272034,0.29759898781776
630,1969003952,-0.12576805055141,-0.33740556240082,-116.44702148437500,0.04345956072211,-0.01856443658471,9.49751186370850,-0.62818908691406,3.62345337867737,0.26258432865143
631,1969012285,-0.12567482888699,-0.33655241131783,-116.44641876220703,0.01609073579311,-0.01701316796243,9.50831890106201,-0.61492085456848,3.64561009407043,0.39129582047462
632,1969020618,-0.12618328630924,-0.33647343516350,-116.44677734375000,0.02962011843920,-0.02941025048494,9.49825000762939,-0.68856191635132,3.56151866912842,0.27587813138962
633,1969028951,-0.12642081081867,-0.33590719103813,-116.44751739501953,0.01685776188970,-0.01522014848888,9.51776218414307,-0.65508395433426,3.61174726486206,0.23353774845600
634,1969037284,-0.12679424881935,-0.33679100871086,-116.44900512695312,0.01685431227088,-0.02403539977968,9.49117946624756,-0.67211759090424,3.44507646560669,0.13743318617344
635,1969045617,-0.12666441500187,-0.33712151646614,-116.44924926757812,0.01336719933897,-0.03677665814757,9.55042743682861,-0.61118131875992,3.50473189353943,0.28532981872559
636,1969053950,-0.12683087587357,-0.33759739995003,-116.44989013671875,0.01720713824034,-0.03339295089245,9.48425006866455,-0.64747667312622,3.49479365348816,0.24045363068581
637,1969062283,-0.12640561163425,-0.33804643154144,-116.44976806640625,0.02393290214241,-0.03927507996559,9.52518081665039,-0.57486039400101,3.48815941810608,0.33374068140984
638,1969070616,-0.12621557712555,-0.33848914504051,-116.44924926757812,0.01624569669366,-0.04603322595358,9.49421977996826,-0.60452157258987,3.49853324890137,0.37533822655678
639,1969078949,-0.12675872445107,-0.33934849500656,-116.44969940185547,0.02227824740112,-0.01954047940671,9.50150489807129,-0.69186615943909,3.44097828865051,0.26878300309181
640,1969087282,-0.12698075175285,-0.33993786573410,-116.44934082031250,0.00232348660938,-0.03120182827115,9.50019645690918,-0.65367531776428,3.48065471649170,0.35774123668671
641,1969095615,-0.12643250823021,-0.34002521634102,-116.45013427734375,0.02830173261464,-0.01804270781577,9.49363040924072,-0.55967104434967,3.53293323516846,0.22062823176384
642,1969103948,-0.12600921094418,-0.34051704406738,-116.45046234130859,0.03728310763836,-0.04093514010310,9.50300979614258,-0.57731926441193,3.49397397041321,0.27644163370132
643,1969112281,-0.12600243091583,-0.33949521183968,-116.45110321044922,-0.04039305448532,-0.04214169830084,9.62472724914551,-0.62590944766998,3.66676712036133,0.24094031751156
644,1969120614,-0.12757569551468,-0.34091135859489,-116.45149993896484,0.13868905603886,0.04445365071297,9.35245418548584,-0.81558293104172,3.38106632232666,0.26988437771797
645,1969128947,-0.12670500576496,-0.34066668152809,-116.45217132568359,-0.08225355297327,-0.09415271878242,9.66696071624756,-0.52191555500031,3.57350587844849,0.23581743240356
646,1969137280,-0.12744757533073,-0.34149634838104,-116.45255279541016,0.07668384909630,0.02915001474321,9.36222457885742,-0.71622532606125,3.45066022872925,0.27039667963982
647,1969145613,-0.12721137702465,-0.34050053358078,-116.45237731933594,-0.02355132251978,-0.07236828655005,9.61227703094482,-0.59896326065063,3.66359090805054,0.34106633067131
648,1969153946,-0.12634269893169,-0.34051766991615,-116.45279693603516,0.07988686859608,0.02234107255936,9.40121459960938,-0.52153146266937,3.54883980751038,0.26732295751572
649,1969162279,-0.12620992958546,-0.34111091494560,-116.45258331298828,-0.01410756539553,-0.03479325771332,9.56269550323486,-0.61054092645645,3.47297048568726,0.34319236874580
650,1969170612,-0.12726861238480,-0.34049347043037,-116.45299530029297,0.04722180217505,-0.02332998812199,9.49206924438477,-0.75415980815887,3.62493944168091,0.26688751578331
651,1969178945,-0.12748010456562,-0.34063813090324,-116.45188903808594,0.03450751677155,-0.01872913725674,9.48941993713379,-0.65165179967880,3.52489042282104,0.45261636376381
652,1969187278,-0.12748967111111,-0.33972293138504,-116.45227813720703,0.02229316718876,-0.03714847192168,9.53137302398682,-0.62857323884964,3.66143941879272,0.27093455195427
653,1969195611,-0.12656825780869,-0.34077471494675,-116.45304870605469,0.00606015231460,-0.04529795050621,9.52007579803467,-0.51546090841293,3.41836071014404,0.23013113439083
654,1969203944,-0.12597234547138,-0.34045577049255,-116.45311737060547,0.03329044580460,-0.02318651601672,9.49313068389893,-0.55593132972717,3.59015488624573,0.30907413363457
655,1969212277,-0.12515720725060,-0.34161198139191,-116.45315551757812,0.03386785462499,-0.02387062273920,9.50715827941895,-0.52834481000900,3.40411901473999,0.30674326419830
656,1969220610,-0.12607565522194,-0.34129101037979,-116.45278930664062,0.03185799345374,-0.03726880252361,9.52729797363281,-0.73633229732513,3.59048748016357,0.36104539036751
657,1969228943,-0.12546160817146,-0.34152549505234,-116.45320892333984,0.05096958205104,-0.02131669409573,9.45904445648193,-0.55288326740265,3.51569509506226,0.26834753155708
658,1969237276,-0.12533734738827,-0.34095683693886,-116.45349884033203,0.00317821139470,-0.05781460553408,9.59484386444092,-0.61335843801498,3.61984181404114,0.28169256448746
659,1969245609,-0.12522257864475,-0.34142255783081,-116.45304870605469,0.02720223553479,-0.01000955700874,9.44977760314941,-0.61179596185684,3.48726272583008,0.37118867039680
660,1969253942,-0.12487593293190,-0.34083563089371,-116.45358276367188,0.01664279215038,-0.03719679638743,9.51927661895752,-0.58564382791519,3.62094330787659,0.25351688265800
661,1969262275,-0.12499374151230,-0.34093710780144,-116.45346832275391,0.05218415707350,-0.01179987378418,9.48756313323975,-0.64020222425461,3.53316330909729,0.33340770006180
662,1969270608,-0.12469030916691,-0.34144306182861,-116.45422363281250,0.01819604448974,-0.02611010149121,9.53419971466064,-0.59061306715012,3.49082350730896,0.22349700331688
663,1969278941,-0.12454443424940,-0.34241184592247,-116.45345306396484,0.04758214205503,-0.02442038431764,9.49996566772461,-0.60838937759399,3.42801737785339,0.40748411417007
664,1969287274,-0.12382066249847,-0.34228321909904,-116.45279693603516,0.01157836616039,-0.01892476901412,9.51339054107666,-0.54040920734406,3.56687211990356,0.39549663662910
665,1969295607,-0.12321734428406,-0.34181076288223,-116.45349884033203,0.04391324892640,-0.00611065467820,9.48606014251709,-0.55418956279755,3.60047745704651,0.23353777825832
666,1969303940,-0.12285599112511,-0.34269613027573,-116.45362091064453,0.01569971255958,-0.02959687449038,9.53746795654297,-0.58251893520355,3.44663906097412,0.30046778917313
667,1969312273,-0.12222703546286,-0.34337469935417,-116.45339965820312,0.02924938313663,-0.04044559225440,9.49633407592773,-0.55150008201599,3.46131587028503,0.34434500336647
668,1969320606,-0.12226655334234,-0.34409630298615,-116.45377349853516,0.02349183894694,-0.01719731464982,9.51284885406494,-0.63192886114120,3.46492743492126,0.27075529098511
669,1969328939,-0.12258321046829,-0.34316307306290,-116.45349884033203,0.01633322238922,-0.03251738473773,9.52441978454590,-0.66422832012177,3.65621447563171,0.34900674223900
670,1969337272,-0.12276072800159,-0.34354069828987,-116.45267486572266,0.04082708805799,-0.01794577389956,9.49449729919434,-0.64829629659653,3.50524425506592,0.41460484266281
671,1969345605,-0.12281115353107,-0.34361764788628,-116.45344543457031,0.01438020449132,-0.02327850647271,9.54172325134277,-0.63249230384827,3.53513598442078,0.22444474697113
672,1969353938,-0.12230266630650,-0.34272500872612,-116.45374298095703,0.03951133042574,-0.02519050426781,9.50272464752197,-0.56505000591278,3.65793037414551,0.28176936507225
673,1969362271,-0.12285023927689,-0.34326979517937,-116.45400238037109,0.02617683261633,-0.02947453595698,9.51124000549316,-0.69312113523483,3.48014187812805,0.28620064258575
674,1969370604,-0.12244420498610,-0.34416919946671,-116.45393371582031,0.04539261385798,-0.02040787599981,9.46739101409912,-0.57762670516968,3.44295048713684,0.32495501637459
675,1969378937,-0.12259767949581,-0.34495526552200,-116.45355224609375,0.01762174628675,-0.02563925646245,9.51844787597656,-0.64386504888535,3.44873929023743,0.36698800325394
676,1969387270,-0.12299028038979,-0.34470039606094,-116.45365905761719,0.01805344782770,-0.02519818395376,9.48639011383057,-0.67452520132065,3.58334183692932,0.30249127745628
677,1969395603,-0.12242064625025,-0.34449353814125,-116.45419311523438,0.01273652259260,-0.02226210385561,9.49747467041016,-0.55764758586884,3.56702589988708,0.25733345746994
678,1969403936,-0.12280180305243,-0.34458142518997,-116.45308685302734,0.02654036879539,-0.01376794651151,9.54116153717041,-0.67232239246368,3.54128313064575,0.44716048240662
679,1969412269,-0.12312597781420,-0.34578844904900,-116.45278930664062,0.01356013957411,-0.03674365207553,9.52576446533203,-0.66502243280411,3.39938068389893,0.35218295454979
680,1969420602,-0.12358999252319,-0.34563040733337,-116.45239257812500,0.02146541327238,-0.03610646352172,9.52233314514160,-0.68223512172699,3.57043218612671,0.36386296153069
681,1969428935,-0.12370216101408,-0.34556302428246,-116.45207977294922,0.00119630130939,-0.02798162214458,9.48726654052734,-0.64045834541321,3.55175971984863,0.35149139165878
682,1969437268,-0.12375143915415,-0.34605926275253,-116.45149993896484,0.01288620941341,-0.02720981091261,9.50175762176514,-0.63246673345566,3.49266767501831,0.38414952158928
683,1969445601,-0.12305590510368,-0.34650674462318,-116.45124053955078,0.03332064300776,-0.02459261938930,9.52625656127930,-0.54250949621201,3.48821067810059,0.35228541493416
