sep=,
DeviceTag:,Right Foot
FirmwareVersion:,2.4.0
AppVersion:,2022.0.0
StartTime: ,2023-06-27_13:37:28_000 CEST
© Xsens Technologies B. V. 2005-2023

PacketCounter,SampleTimeFine,Euler_X,Euler_Y,Euler_Z,Acc_X,Acc_Y,Acc_Z,Gyr_X,Gyr_Y,Gyr_Z
0,1974987046,-0.12611539661884,-0.32773408293724,-116.47894287109375,0.00000000000000,0.00000000000000,0.00000000000000,0.00000000000000,0.00000000000000,0.00000000000000
1,1974995379,-0.12552551925182,-0.32745438814163,-116.47935485839844,0.03059248067439,-0.03190926834941,9.50443840026855,-0.55497086048126,3.57239198684692,0.27658250927925
2,1975003712,-0.12505047023296,-0.32693332433701,-116.47940826416016,0.04267926141620,-0.01661070436239,9.49965000152588,-0.56972455978394,3.60817432403564,0.31395363807678
3,1975012045,-0.12516738474369,-0.32748082280159,-116.47904205322266,-0.00665090698749,-0.02978493645787,9.49291419982910,-0.63839638233185,3.47318816184998,0.36705201864243
4,1975020378,-0.12468798458576,-0.32765325903893,-116.47912597656250,0.03388756886125,-0.03586691617966,9.51593208312988,-0.56852078437805,3.52421164512634,0.31344142556190
5,1975028711,-0.12431986629963,-0.32894694805145,-116.47952270507812,0.01124320272356,-0.01781941205263,9.49039459228516,-0.58073878288269,3.38548493385315,0.27194637060165
6,1975037044,-0.12478855997324,-0.32836264371872,-116.47923278808594,0.00976244639605,-0.02669686265290,9.50007152557373,-0.68158185482025,3.61519265174866,0.35642200708389
7,1975045377,-0.12445695698261,-0.32865148782730,-116.47885131835938,0.03016335330904,-0.02690793015063,9.47013282775879,-0.58547735214233,3.50510311126709,0.37220042943954
8,1975053710,-0.12441152334213,-0.32822406291962,-116.47893524169922,0.02179331332445,-0.02282836660743,9.51281356811523,-0.62118363380432,3.59693002700806,0.31308278441429
9,1975062043,-0.12480138987303,-0.32826820015907,-116.47924804687500,0.04342434927821,-0.01220299396664,9.45553112030029,-0.67174619436264,3.53289484977722,0.29248899221420
10,1975070376,-0.12477619200945,-0.32909139990807,-116.47909545898438,0.03982036560774,-0.03417631238699,9.52809429168701,-0.62295109033585,3.44790697097778,0.33846652507782
11,1975078709,-0.12483321875334,-0.32850900292397,-116.47830200195312,0.02372516132891,-0.01625575497746,9.50015354156494,-0.63086569309235,3.60778999328613,0.41638493537903
12,1975087042,-0.12505675852299,-0.32867482304573,-116.47815704345703,0.02865450829268,-0.03421792760491,9.50155448913574,-0.65256100893021,3.52638840675354,0.34074616432190
13,1975095375,-0.12522618472576,-0.32880365848541,-116.47808837890625,0.03489730134606,-0.04055215790868,9.49255084991455,-0.64579886198044,3.52310991287231,0.33808231353760
14,1975103708,-0.12436887621880,-0.32877165079117,-116.47852325439453,0.01670520380139,-0.04496327415109,9.50060176849365,-0.52377271652222,3.55000519752502,0.27169016003609
15,1975112041,-0.12398645281792,-0.32836249470711,-116.47875213623047,0.00962055288255,-0.02762701176107,9.50668048858643,-0.57822853326797,3.58886146545410,0.29479426145554
16,1975120374,-0.12412844598293,-0.32883611321449,-116.47888946533203,0.03484042733908,-0.03960767015815,9.48672199249268,-0.64459502696991,3.48968338966370,0.30429708957672
17,1975128707,-0.12389448285103,-0.32848265767097,-116.47879791259766,0.03687429055572,-0.04064233601093,9.51464557647705,-0.59626096487045,3.58176660537720,0.33552086353302
18,1975137040,-0.12456005066633,-0.32871058583260,-116.47893524169922,0.03746099397540,-0.02887293510139,9.54295825958252,-0.70507019758224,3.51788449287415,0.30488622188568
19,1975145373,-0.12542301416397,-0.32886686921120,-116.48005676269531,0.03735003247857,-0.01954363100231,9.49191570281982,-0.73027467727661,3.52180385589600,0.19318255782127
20,1975153706,-0.12487748265266,-0.32846865057945,-116.47968292236328,0.02957941219211,-0.03685632720590,9.49226474761963,-0.55999118089676,3.59347224235535,0.36659091711044
21,1975162039,-0.12571789324284,-0.32884195446968,-116.47933197021484,0.01831722632051,-0.01877315156162,9.51628875732422,-0.72581779956818,3.49390983581543,0.36461862921715
22,1975170372,-0.12495680153370,-0.32907637953758,-116.47842407226562,0.03795091435313,-0.01249230653048,9.50168037414551,-0.53460752964020,3.51691150665283,0.43011426925659
23,1975178705,-0.12497517466545,-0.32932487130165,-116.47862243652344,0.02843111380935,-0.01643261499703,9.49666309356689,-0.62761282920837,3.51148128509521,0.30370798707008
24,1975187038,-0.12519071996212,-0.33010983467102,-116.47890472412109,0.03515544533730,-0.03372788429260,9.51550292968750,-0.65190792083740,3.45164656639099,0.28600856661797
25,1975195371,-0.12587535381317,-0.33074074983597,-116.47897338867188,0.03027440607548,-0.03187448903918,9.50055980682373,-0.70720911026001,3.46405673027039,0.30971455574036
26,1975203704,-0.12613877654076,-0.33038249611855,-116.47920989990234,0.00951875839382,-0.04759765043855,9.48469924926758,-0.65761983394623,3.58882308006287,0.29434597492218
27,1975212037,-0.12621839344501,-0.33051902055740,-116.47933959960938,0.01045960560441,-0.02491079829633,9.51373291015625,-0.63442617654800,3.52190637588501,0.30667927861214
28,1975220370,-0.12672464549541,-0.33006000518799,-116.47991943359375,0.03706889972091,-0.02682707272470,9.50794696807861,-0.68731951713562,3.60095095634460,0.25332474708557
29,1975228703,-0.12679594755173,-0.32942068576813,-116.47962951660156,0.01835997030139,-0.03170621022582,9.49316310882568,-0.63317108154297,3.61634564399719,0.35918840765953
30,1975237036,-0.12702701985836,-0.32850402593613,-116.48032379150391,0.03599106892943,-0.02454500459135,9.49521350860596,-0.65450769662857,3.65525341033936,0.23895518481731
31,1975245369,-0.12765426933765,-0.32813557982445,-116.48062896728516,0.03380067646503,-0.02895350567997,9.49008369445801,-0.70028030872345,3.58407139778137,0.28933838009834
32,1975253702,-0.12697124481201,-0.32822662591934,-116.48129272460938,0.02549394965172,-0.04012876749039,9.50948715209961,-0.54405921697617,3.53520011901855,0.24179838597775
33,1975262035,-0.12672735750675,-0.32876199483871,-116.48136138916016,0.04032212868333,-0.02248024195433,9.49448394775391,-0.59572309255600,3.47500658035278,0.31659194827080
34,1975270368,-0.12705588340759,-0.32902055978775,-116.48126983642578,0.04077759757638,-0.03241239860654,9.51788806915283,-0.66595733165741,3.51447820663452,0.33265209197998
35,1975278701,-0.12716066837311,-0.32932278513908,-116.48084259033203,0.00776002090424,-0.02823285385966,9.48688793182373,-0.63742309808731,3.50246500968933,0.38190826773643
36,1975287034,-0.12741222977638,-0.32863226532936,-116.48101043701172,0.02727936767042,-0.02139665372670,9.52145576477051,-0.65617263317108,3.62933206558228,0.30255532264709
37,1975295367,-0.12822124361992,-0.32853987812996,-116.48173522949219,0.01964766532183,-0.01549822278321,9.50235557556152,-0.72279536724091,3.55020999908447,0.24774089455605
38,1975303700,-0.12793420255184,-0.32901829481125,-116.48203277587891,0.03736485913396,-0.02414937317371,9.49234294891357,-0.59190660715103,3.48794174194336,0.28621348738670
39,1975312033,-0.12748983502388,-0.32874494791031,-116.48173522949219,0.03213945403695,-0.03357559442520,9.48422622680664,-0.57085168361664,3.57272481918335,0.36395269632339
40,1975320366,-0.12713582813740,-0.32868409156799,-116.48142242431641,0.03193758428097,-0.02368858270347,9.51428890228271,-0.58422231674194,3.55187487602234,0.36008492112160
41,1975328699,-0.12777416408062,-0.32860407233238,-116.48156738281250,0.02028063684702,-0.03720221295953,9.51573753356934,-0.70120257139206,3.55015873908997,0.30150520801544
42,1975337032,-0.12806573510170,-0.32893350720406,-116.48139190673828,0.03145117685199,-0.03780468180776,9.52725601196289,-0.66126990318298,3.50664019584656,0.34466516971588
43,1975345365,-0.12801012396812,-0.32879197597504,-116.48097991943359,0.02416231483221,-0.03279782459140,9.52321434020996,-0.61718785762787,3.55430841445923,0.37291768193245
44,1975353698,-0.12759476900101,-0.32835859060287,-116.48129272460938,0.02839948609471,-0.02588023245335,9.51078891754150,-0.57738327980042,3.59736537933350,0.28480467200279
45,1975362031,-0.12748970091343,-0.32880252599716,-116.48092651367188,0.03673781827092,-0.01972661539912,9.53523349761963,-0.61142468452454,3.48684048652649,0.36497727036476
46,1975370364,-0.12789523601532,-0.32782456278801,-116.48042297363281,0.02321694791317,-0.02674898691475,9.52330780029297,-0.67524242401123,3.66323232650757,0.38409826159477
47,1975378697,-0.12823943793774,-0.32734194397926,-116.48024749755859,0.01546075753868,-0.01592816412449,9.51385593414307,-0.66594445705414,3.59650754928589,0.34685513377190
48,1975387030,-0.12815484404564,-0.32652854919434,-116.48021697998047,0.02400393784046,-0.01472715009004,9.52865886688232,-0.61572772264481,3.64390635490417,0.32466042041779
49,1975395363,-0.12796477973461,-0.32641619443893,-116.48002624511719,0.01562880724669,-0.01892839372158,9.52578735351562,-0.60265183448792,3.55209255218506,0.34665027260780
50,1975403696,-0.12804935872555,-0.32579219341278,-116.48013305664062,0.03314103931189,-0.03378985822201,9.50035572052002,-0.63607829809189,3.62031579017639,0.30998346209526
51,1975412029,-0.12789754569530,-0.32630720734596,-116.48036956787109,0.01473433524370,-0.03461027145386,9.50839805603027,-0.60622489452362,3.47808051109314,0.29113140702248
52,1975420362,-0.12787221372128,-0.32726565003395,-116.48073577880859,0.03761805221438,-0.02241522073746,9.51416969299316,-0.62407809495926,3.42954134941101,0.27760708332062
53,1975428695,-0.12878984212875,-0.32587563991547,-116.48184204101562,0.04049924388528,-0.01377128809690,9.52818679809570,-0.73588413000107,3.70607233047485,0.19797240197659
54,1975437028,-0.12923257052898,-0.32591012120247,-116.48278808593750,0.02844396233559,-0.01954618655145,9.49758529663086,-0.67873883247375,3.54239773750305,0.20826934278011
55,1975445361,-0.12964892387390,-0.32563138008118,-116.48305511474609,0.02133432775736,-0.03150511905551,9.52668952941895,-0.67592126131058,3.57146954536438,0.28557309508324
56,1975453694,-0.12983760237694,-0.32608041167259,-116.48230743408203,0.02574938163161,-0.03037203662097,9.48946666717529,-0.64738702774048,3.49255228042603,0.41233795881271
57,1975462027,-0.12960284948349,-0.32628992199898,-116.48271942138672,0.04347988590598,-0.02392004057765,9.52963447570801,-0.59708058834076,3.51365804672241,0.27704355120659
58,1975470360,-0.13029581308365,-0.32612955570221,-116.48178863525391,0.02025376632810,-0.01954623684287,9.49122524261475,-0.70934778451920,3.56486105918884,0.43339285254478
59,1975478693,-0.13096034526825,-0.32622283697128,-116.48185729980469,0.02293103002012,-0.02828253060579,9.51922988891602,-0.70466041564941,3.52705478668213,0.32040849328041
60,1975487026,-0.13141275942326,-0.32655465602875,-116.48268890380859,0.01987490057945,-0.03788160905242,9.50976467132568,-0.68140274286270,3.50640988349915,0.22181929647923
61,1975495359,-0.13138884305954,-0.32667145133018,-116.48220825195312,0.03323808684945,-0.02974333614111,9.49977397918701,-0.62126046419144,3.52643966674805,0.38042259216309
62,1975503692,-0.13224828243256,-0.32668533921242,-116.48253631591797,0.02657733857632,-0.04059531912208,9.51201152801514,-0.72939097881317,3.54402422904968,0.28317818045616
63,1975512025,-0.13213428854942,-0.32655701041222,-116.48287963867188,0.01953895948827,-0.00896981265396,9.52088165283203,-0.61137330532074,3.55435919761658,0.28009164333344
64,1975520358,-0.13148246705532,-0.32706248760223,-116.48352050781250,0.03272526338696,0.00035790295806,9.54884529113770,-0.54761952161789,3.48604631423950,0.24464158713818
65,1975528691,-0.13102522492409,-0.32653608918190,-116.48431396484375,0.01090887654573,-0.03691276162863,9.50266265869141,-0.57046735286713,3.60141205787659,0.22717262804508
66,1975537024,-0.13083209097385,-0.32597094774246,-116.48476409912109,0.01650619693100,-0.02112712897360,9.49495887756348,-0.60338169336319,3.61437344551086,0.26812979578972
67,1975545357,-0.13107568025589,-0.32618835568428,-116.48427581787109,0.01024633832276,-0.03772566840053,9.51079940795898,-0.65409797430038,3.51296687126160,0.38592970371246
68,1975553690,-0.13212355971336,-0.32588669657707,-116.48398590087891,0.02471025288105,-0.01333901844919,9.53048706054688,-0.75245642662048,3.58122825622559,0.35419356822968
69,1975562023,-0.13123396039009,-0.32648220658302,-116.48361968994141,0.01420506089926,-0.01969475112855,9.50603008270264,-0.51742047071457,3.46714305877686,0.36718004941940
70,1975570356,-0.13077723979950,-0.32717505097389,-116.48274230957031,0.02351189032197,-0.02315291576087,9.50955104827881,-0.57133835554123,3.46350598335266,0.42634898424149
71,1975578689,-0.13152183592319,-0.32662123441696,-116.48292541503906,0.02458923868835,-0.02161808684468,9.52447986602783,-0.71342045068741,3.60504984855652,0.31190454959869
72,1975587022,-0.13253256678581,-0.32702335715294,-116.48252868652344,0.02734103798866,-0.04132277891040,9.49702644348145,-0.74840956926346,3.49677872657776,0.36856323480606
73,1975595355,-0.13202123343945,-0.32734635472298,-116.48253631591797,0.03318375721574,-0.03584700077772,9.53052520751953,-0.56245017051697,3.49992942810059,0.32463485002518
74,1975603688,-0.13156369328499,-0.32790961861610,-116.48200988769531,0.01703099533916,-0.03200626745820,9.52404880523682,-0.57108223438263,3.47841358184814,0.38733848929405
75,1975612021,-0.13224825263023,-0.32758986949921,-116.48136138916016,0.03684497252107,-0.01309965178370,9.51456928253174,-0.70686322450638,3.57787299156189,0.39627781510353
76,1975620354,-0.13200417160988,-0.32772612571716,-116.48132324218750,0.03207433223724,-0.03927977010608,9.50751495361328,-0.59692686796188,3.52756667137146,0.32781094312668
77,1975628687,-0.13174203038216,-0.32781630754471,-116.48204803466797,0.03057524561882,-0.02803440392017,9.49014663696289,-0.59469848871231,3.52892422676086,0.23385797441006
78,1975637020,-0.13104239106178,-0.32745736837387,-116.48154449462891,0.01213533431292,-0.03488042578101,9.53363990783691,-0.54147207736969,3.58901476860046,0.38493067026138
79,1975645353,-0.13112707436085,-0.32768788933754,-116.48188018798828,0.01225375104696,-0.02754736132920,9.54496192932129,-0.63483607769012,3.51050806045532,0.28434365987778
80,1975653686,-0.13131724298000,-0.32772830128670,-116.48200988769531,0.01648259907961,-0.02282598987222,9.51163673400879,-0.64874458312988,3.54165482521057,0.30839541554451
81,1975662019,-0.13157983124256,-0.32815366983414,-116.48292541503906,0.03814677894115,-0.00504858372733,9.51600742340088,-0.65750461816788,3.48722410202026,0.21121497452259
82,1975670352,-0.13093923032284,-0.32789131999016,-116.48342895507812,0.01774559915066,-0.02697675861418,9.51254081726074,-0.54925888776779,3.57871866226196,0.26298135519028
83,1975678685,-0.13116641342640,-0.32738897204399,-116.48357391357422,0.02830144204199,-0.03020587749779,9.51084613800049,-0.65274029970169,3.59664821624756,0.31131541728973
84,1975687018,-0.13053940236568,-0.32719472050667,-116.48412322998047,0.01853901520371,-0.02436968684196,9.52326297760010,-0.55192267894745,3.56934356689453,0.25580933690071
85,1975695351,-0.13071112334728,-0.32717195153236,-116.48406982421875,0.03358381614089,-0.01678710430861,9.52151966094971,-0.64456945657730,3.54162931442261,0.32553133368492
86,1975703684,-0.13056434690952,-0.32786563038826,-116.48390197753906,0.01885900646448,-0.02173922397196,9.50728321075439,-0.60904234647751,3.46250653266907,0.34095105528831
87,1975712017,-0.13069030642509,-0.32771998643875,-116.48379516601562,0.01827579550445,-0.02218745090067,9.49892902374268,-0.63952350616455,3.55617809295654,0.34000337123871
88,1975720350,-0.13061970472336,-0.32760345935822,-116.48427581787109,0.01931692101061,-0.01669829152524,9.53511524200439,-0.61800754070282,3.55973863601685,0.26515856385231
89,1975728683,-0.13068640232086,-0.32707321643829,-116.48431396484375,0.03707482665777,-0.04141597077250,9.49426078796387,-0.63270998001099,3.60312891006470,0.32256004214287
90,1975737016,-0.13052624464035,-0.32718604803085,-116.48365783691406,0.02891366556287,-0.02374559640884,9.46790122985840,-0.60704457759857,3.53212642669678,0.40147757530212
91,1975745349,-0.13031028211117,-0.32702904939651,-116.48377990722656,0.03726907446980,-0.03469537943602,9.47280979156494,-0.59766983985901,3.55812478065491,0.31087997555733
92,1975753682,-0.13061830401421,-0.32768103480339,-116.48382568359375,0.01421909127384,-0.04523944482207,9.51675891876221,-0.66398507356644,3.46714305877686,0.31738600134850
93,1975762015,-0.13109174370766,-0.32856065034866,-116.48474884033203,0.03580200299621,-0.03885843604803,9.52629184722900,-0.68222236633301,3.43481779098511,0.21131744980812
94,1975770348,-0.13145202398300,-0.32835698127747,-116.48542022705078,0.03729932755232,-0.04024232923985,9.50323772430420,-0.66941529512405,3.57095766067505,0.24231070280075
95,1975778681,-0.13199317455292,-0.32864931225777,-116.48503875732422,0.03050610050559,-0.04291258007288,9.50265026092529,-0.68944561481476,3.50267004966736,0.37814298272133
96,1975787014,-0.13213551044464,-0.32893556356430,-116.48490142822266,0.02909739874303,-0.02880988642573,9.52161884307861,-0.64415961503983,3.51109719276428,0.33813357353210
97,1975795347,-0.13259042799473,-0.32896888256073,-116.48513793945312,0.01200038846582,-0.01936821267009,9.51315402984619,-0.67945605516434,3.53668570518494,0.29786795377731
98,1975803680,-0.13268737494946,-0.32954341173172,-116.48572540283203,0.01860246434808,-0.01025980990380,9.49411582946777,-0.63834524154663,3.47600555419922,0.25009742379189
99,1975812013,-0.13282349705696,-0.32890066504478,-116.48545074462891,0.02486572228372,-0.03832627832890,9.48221302032471,-0.64085525274277,3.61665296554565,0.35870170593262
100,1975820346,-0.13249768316746,-0.32812249660492,-116.48569488525391,0.02297050319612,-0.03456775099039,9.49286365509033,-0.58660435676575,3.63903951644897,0.29225838184357
101,1975828679,-0.13216871023178,-0.32766342163086,-116.48513793945312,0.00763031374663,-0.03234080225229,9.48258876800537,-0.58478575944901,3.59441995620728,0.39205145835876
102,1975837012,-0.13209992647171,-0.32709369063377,-116.48493194580078,0.00960231944919,-0.02953785099089,9.47901344299316,-0.61790496110916,3.61352825164795,0.34686794877052
103,1975845345,-0.13256907463074,-0.32822585105896,-116.48471069335938,0.02939109131694,-0.01233947556466,9.51749229431152,-0.68109536170959,3.40318417549133,0.35455226898193
104,1975853678,-0.13165505230427,-0.32764634490013,-116.48390197753906,0.02528721466660,-0.02140491269529,9.47906017303467,-0.51511502265930,3.61519312858582,0.41889521479607
105,1975862011,-0.13139429688454,-0.32818710803986,-116.48352050781250,0.02614495530725,-0.00483914138749,9.48938274383545,-0.59401971101761,3.47325181961060,0.37364763021469
106,1975870344,-0.13090881705284,-0.32853323221207,-116.48357391357422,0.03425420820713,-0.00451085530221,9.49116420745850,-0.56685584783554,3.50443744659424,0.31385123729706
107,1975878677,-0.13070420920849,-0.32792910933495,-116.48420715332031,0.03779730200768,-0.00531880091876,9.46113681793213,-0.60245954990387,3.61012125015259,0.25624480843544
108,1975887010,-0.13006998598576,-0.32840585708618,-116.48386383056641,0.04013070836663,-0.04053121805191,9.47449207305908,-0.54956626892090,3.48922276496887,0.36543831229210
109,1975895343,-0.12973128259182,-0.32830655574799,-116.48361968994141,0.02164754085243,-0.02977561950684,9.52660846710205,-0.58332574367523,3.55018401145935,0.35790771245956
110,1975903676,-0.13046994805336,-0.32870414853096,-116.48357391357422,0.02218415215611,-0.02950976416469,9.50725460052490,-0.71439385414124,3.49869966506958,0.32496783137321
111,1975912009,-0.13001517951488,-0.32964381575584,-116.48336029052734,0.03589482977986,-0.02267519570887,9.49013423919678,-0.57135111093521,3.42596793174744,0.35382220149040
112,1975920342,-0.13069842755795,-0.33001470565796,-116.48364257812500,0.02952552959323,-0.04112972319126,9.50575351715088,-0.70742684602737,3.50008320808411,0.28626471757889
113,1975928675,-0.13051193952560,-0.32977050542831,-116.48353576660156,0.00760304089636,-0.05160515755415,9.49652290344238,-0.60217785835266,3.56831932067871,0.34120726585388
114,1975937008,-0.12984046339989,-0.32953670620918,-116.48339843750000,0.01840853691101,-0.03360483422875,9.50595283508301,-0.54523748159409,3.57364702224731,0.33769807219505
115,1975945341,-0.12945798039436,-0.32956877350807,-116.48307037353516,0.01246367581189,-0.02966162562370,9.51739406585693,-0.57991915941238,3.53407311439514,0.36472114920616
116,1975953674,-0.12957482039928,-0.32930874824524,-116.48351287841797,0.03137685731053,-0.02672703936696,9.50152111053467,-0.64013826847076,3.57715630531311,0.26999968290329
117,1975962007,-0.13008356094360,-0.32958796620369,-116.48349761962891,0.01870875060558,-0.03587871044874,9.49311256408691,-0.68591082096100,3.50720381736755,0.32263693213463
118,1975970340,-0.13023495674133,-0.32934880256653,-116.48371124267578,0.01329869590700,-0.02196484617889,9.49195575714111,-0.64406996965408,3.57491517066956,0.29762461781502
119,1975978673,-0.13026164472103,-0.32846209406853,-116.48431396484375,0.02101397886872,-0.02325263246894,9.51463794708252,-0.62761276960373,3.64575099945068,0.25265881419182
120,1975987006,-0.13034199178219,-0.32848682999611,-116.48445129394531,0.02279715985060,-0.01643865369260,9.50564479827881,-0.63634729385376,3.54160356521606,0.30591082572937
121,1975995339,-0.13109177350998,-0.32916590571404,-116.48513793945312,0.01196672953665,-0.02472115494311,9.48441410064697,-0.71593070030212,3.45828056335449,0.24220822751522
122,1976003672,-0.13072317838669,-0.32961419224739,-116.48550415039062,0.02455136552453,-0.00977335404605,9.50758552551270,-0.58258301019669,3.49316716194153,0.27873414754868
123,1976012005,-0.13103951513767,-0.33015257120132,-116.48559570312500,0.01578216999769,-0.02543079108000,9.51126670837402,-0.66216641664505,3.47295761108398,0.31000912189484
124,1976020338,-0.13024158775806,-0.33058354258537,-116.48605346679688,0.02912398800254,-0.02550832927227,9.51468276977539,-0.53112405538559,3.49408936500549,0.26623436808586
125,1976028671,-0.13066925108433,-0.33030226826668,-116.48596954345703,0.02998116239905,-0.03595172241330,9.49281501770020,-0.67612612247467,3.57382607460022,0.33464998006821
126,1976037004,-0.13074828684330,-0.33029559254646,-116.48664093017578,0.02653457969427,-0.03737362474203,9.47413063049316,-0.63588619232178,3.54616260528564,0.24333523213863
127,1976045337,-0.13097368180752,-0.33032321929932,-116.48696899414062,0.02831225655973,-0.02779455855489,9.52641201019287,-0.65210002660751,3.53537940979004,0.28544506430626
128,1976053670,-0.12977078557014,-0.33077579736710,-116.48733520507812,0.00839877687395,-0.02014289423823,9.52066421508789,-0.48166286945343,3.49116873741150,0.27832424640656
129,1976062003,-0.12862758338451,-0.33131650090218,-116.48706054687500,0.03187690302730,-0.02645663358271,9.48082065582275,-0.48832261562347,3.47349548339844,0.36797413229942
130,1976070336,-0.12824146449566,-0.33222851157188,-116.48760986328125,0.01966468244791,-0.03827298060060,9.51047325134277,-0.57925313711166,3.43696951866150,0.25432372093201
131,1976078669,-0.12887598574162,-0.33271461725235,-116.48667907714844,0.02699693292379,-0.04300039261580,9.48126792907715,-0.70153552293777,3.48079538345337,0.43398201465607
132,1976087002,-0.12884396314621,-0.33269327878952,-116.48591613769531,0.03969441354275,-0.01933765225112,9.48604583740234,-0.62046647071838,3.54734110832214,0.41308081150055
133,1976095335,-0.12906579673290,-0.33211907744408,-116.48567962646484,0.03114820271730,-0.01931603066623,9.52519607543945,-0.65128034353256,3.60848212242126,0.35114553570747
134,1976103668,-0.12925176322460,-0.33221092820168,-116.48483276367188,0.00940918643028,-0.03922704234719,9.51908397674561,-0.64912867546082,3.53471302986145,0.42514505982399
135,1976112001,-0.12909999489784,-0.33197709918022,-116.48432922363281,0.02509644813836,-0.02160838618875,9.50529003143311,-0.60637861490250,3.56808876991272,0.38772267103195
136,1976120334,-0.12932310998440,-0.33178222179413,-116.48410797119141,0.03230091929436,-0.02367935515940,9.48968315124512,-0.65227925777435,3.56918978691101,0.34968551993370
137,1976128667,-0.12908197939396,-0.33195808529854,-116.48474884033203,0.03676659986377,-0.02876862138510,9.51521205902100,-0.59737527370453,3.51829481124878,0.24643458425999
138,1976137000,-0.13005797564983,-0.33194303512573,-116.48497009277344,0.01928458176553,-0.02384889125824,9.49459457397461,-0.74303060770035,3.54739236831665,0.29604938626289
139,1976145333,-0.12921085953712,-0.33206227421761,-116.48467254638672,0.03715603426099,-0.01893665082753,9.47688865661621,-0.52367025613785,3.52592778205872,0.35695999860764
140,1976153666,-0.12848980724812,-0.33162581920624,-116.48543548583984,0.03164353966713,-0.01139679830521,9.51359462738037,-0.53984558582306,3.59886384010315,0.23113000392914
141,1976161999,-0.12840382754803,-0.33173069357872,-116.48535156250000,0.04394815862179,-0.03381180763245,9.52126502990723,-0.61431908607483,3.52439093589783,0.34046444296837
142,1976170332,-0.12823314964771,-0.33141192793846,-116.48567962646484,0.04415340721607,-0.02372481673956,9.51966381072998,-0.60607117414474,3.58425116539001,0.28411307930946
143,1976178665,-0.12882837653160,-0.33203247189522,-116.48581695556641,0.03269402310252,-0.03487267717719,9.51326465606689,-0.69595164060593,3.46506834030151,0.30826732516289
144,1976186998,-0.12891085445881,-0.33215856552124,-116.48493194580078,0.01989465206861,-0.03816815093160,9.50113201141357,-0.63547635078430,3.53053832054138,0.42891040444374
145,1976195331,-0.12886624038219,-0.33173406124115,-116.48517608642578,0.03095522336662,-0.02416649274528,9.48962593078613,-0.62038958072662,3.58978343009949,0.29223278164864
146,1976203664,-0.12887157499790,-0.33147862553596,-116.48435974121094,0.01605285704136,-0.01299704983830,9.50656795501709,-0.62502568960190,3.57559347152710,0.42212259769440
147,1976211997,-0.12825332581997,-0.33176073431969,-116.48477935791016,0.02952170558274,-0.01962978206575,9.47538471221924,-0.55084699392319,3.50451421737671,0.26474875211716
148,1976220330,-0.12849949300289,-0.33240965008736,-116.48494720458984,0.02344504743814,-0.02135907299817,9.51139068603516,-0.65653133392334,3.46827030181885,0.29927673935890
149,1976228663,-0.12879247963428,-0.33294263482094,-116.48516082763672,0.02312242612243,-0.01292712427676,9.53059482574463,-0.65942573547363,3.47352123260498,0.29743254184723
150,1976236996,-0.12879577279091,-0.33264306187630,-116.48559570312500,0.02865797095001,-0.03790621086955,9.50345134735107,-0.62738221883774,3.58156180381775,0.26953858137131
151,1976245329,-0.12906864285469,-0.33243417739868,-116.48602294921875,0.02738040871918,-0.01600270159543,9.51563262939453,-0.65704363584518,3.56570672988892,0.27619832754135
152,1976253662,-0.12965600192547,-0.33248677849770,-116.48533630371094,0.00528493709862,-0.02746466174722,9.51930236816406,-0.69666886329651,3.53924727439880,0.40375721454620
153,1976261995,-0.13013005256653,-0.33239856362343,-116.48471069335938,0.02655116654932,-0.01303552463651,9.51871585845947,-0.68211990594864,3.54754638671875,0.39632907509804
154,1976270328,-0.13037456572056,-0.33223170042038,-116.48445129394531,0.02965286374092,-0.02243855223060,9.52832317352295,-0.65545535087585,3.56662845611572,0.35452657938004
155,1976278661,-0.13000713288784,-0.33170330524445,-116.48415374755859,0.02026449888945,-0.00685272132978,9.50883674621582,-0.57975256443024,3.60239839553833,0.36545109748840
156,1976286994,-0.12995783984661,-0.33213925361633,-116.48448944091797,0.00854534190148,-0.04688207432628,9.49657917022705,-0.62010794878006,3.49227070808411,0.28088572621346
157,1976295327,-0.13008444011211,-0.33137917518616,-116.48377990722656,0.01572885364294,-0.03877418115735,9.51619434356689,-0.63983070850372,3.62951135635376,0.40565261244774
158,1976303660,-0.12975591421127,-0.33120301365852,-116.48383331298828,0.01951613463461,-0.01084128115326,9.51887893676758,-0.58663004636765,3.56665444374084,0.31515756249428
159,1976311993,-0.12952132523060,-0.33121740818024,-116.48398590087891,0.02883150428534,-0.03085777349770,9.47405338287354,-0.59718310832977,3.53929829597473,0.30263221263885
160,1976320326,-0.12984721362591,-0.33057534694672,-116.48429870605469,0.03446999937296,-0.03452902287245,9.52707004547119,-0.66529130935669,3.62177562713623,0.28547063469887
161,1976328659,-0.13005591928959,-0.33050411939621,-116.48517608642578,0.03019536286592,-0.02335561439395,9.48968982696533,-0.65025585889816,3.54764866828918,0.21536450088024
162,1976336992,-0.13010919094086,-0.33065724372864,-116.48559570312500,0.03092803619802,-0.02202740311623,9.52810764312744,-0.63283812999725,3.52859163284302,0.27212566137314
163,1976345325,-0.12945175170898,-0.33182665705681,-116.48626708984375,0.02152460813522,-0.01922118663788,9.53083229064941,-0.54662060737610,3.39772820472717,0.24725423753262
164,1976353658,-0.12986931204796,-0.33241799473763,-116.48596954345703,0.04053220525384,-0.03741765767336,9.48135089874268,-0.67579317092896,3.47393083572388,0.35826635360718
165,1976361991,-0.12942364811897,-0.33237868547440,-116.48592376708984,0.03650177642703,-0.03908938914537,9.49116420745850,-0.57041615247726,3.54367852210999,0.32204779982567
166,1976370324,-0.12926642596722,-0.33166098594666,-116.48611450195312,0.03552641347051,-0.03115540742874,9.51795959472656,-0.60788977146149,3.63202142715454,0.30132582783699
167,1976378657,-0.12947420775890,-0.33170884847641,-116.48636627197266,0.03651928901672,-0.03536803647876,9.51005554199219,-0.65020453929901,3.53425240516663,0.28803208470345
168,1976386990,-0.12937654554844,-0.33209443092346,-116.48667907714844,0.02548097074032,-0.02211535163224,9.52060317993164,-0.61411410570145,3.49864864349365,0.28398504853249
169,1976395323,-0.12903067469597,-0.33184003829956,-116.48725128173828,0.00870156101882,-0.03548791259527,9.50061225891113,-0.58447843790054,3.56995820999146,0.26623433828354
170,1976403656,-0.12897908687592,-0.33171939849854,-116.48707580566406,0.01172242220491,-0.02758286334574,9.50178146362305,-0.61980050802231,3.56160831451416,0.34353816509247
171,1976411989,-0.12895283102989,-0.33113691210747,-116.48702239990234,0.01897749677300,-0.01618146337569,9.50258445739746,-0.62256675958633,3.60735511779785,0.32655584812164
172,1976420322,-0.12903723120689,-0.33038288354874,-116.48726654052734,0.02242734842002,-0.02147073671222,9.53000164031982,-0.63639837503433,3.63734889030457,0.29233521223068
173,1976428655,-0.12978467345238,-0.32985925674438,-116.48747253417969,0.03539478778839,-0.03096670284867,9.48896121978760,-0.71377903223038,3.60123300552368,0.30240160226822
174,1976436988,-0.12965776026249,-0.32990279793739,-116.48771667480469,0.03155149146914,-0.03902810439467,9.50814247131348,-0.61111730337143,3.54063034057617,0.29282197356224
175,1976445321,-0.12946322560310,-0.32910370826721,-116.48757934570312,0.04308873787522,-0.01950577087700,9.49738311767578,-0.60228025913239,3.63512110710144,0.33913242816925
176,1976453654,-0.12936210632324,-0.32896903157234,-116.48723602294922,0.03700412064791,-0.03875282034278,9.52090644836426,-0.61314070224762,3.56165909767151,0.36303052306175
177,1976461987,-0.12955673038960,-0.32906094193459,-116.48703002929688,0.01732290349901,-0.01616180315614,9.51196861267090,-0.64874458312988,3.52879667282104,0.33974725008011
178,1976470320,-0.12981458008289,-0.32783100008965,-116.48740386962891,0.01442520972341,-0.02564102038741,9.50080299377441,-0.65599334239960,3.69421291351318,0.27827307581902
179,1976478653,-0.12974248826504,-0.32808533310890,-116.48730468750000,0.03348054364324,-0.04907275736332,9.49520397186279,-0.61775135993958,3.50827956199646,0.33887636661530
180,1976486986,-0.12970244884491,-0.32750248908997,-116.48709869384766,0.02477806247771,-0.03529803082347,9.49878120422363,-0.62063288688660,3.61621761322021,0.34574091434479
181,1976495319,-0.13036471605301,-0.32787311077118,-116.48742675781250,0.00645795976743,-0.02800397947431,9.51818847656250,-0.70389199256897,3.49296212196350,0.29166930913925
182,1976503652,-0.13011413812637,-0.32786068320274,-116.48742675781250,0.02477963455021,-0.03778159618378,9.54628849029541,-0.59559494256973,3.54698228836060,0.32061338424683
183,1976511985,-0.12925770878792,-0.32837706804276,-116.48652648925781,0.03795451298356,-0.03100448288023,9.53338718414307,-0.52187722921371,3.47772169113159,0.43093392252922
184,1976520318,-0.12957748770714,-0.32864043116570,-116.48721313476562,0.04375360533595,-0.02588865347207,9.47743988037109,-0.66564989089966,3.51404237747192,0.24197770655155
185,1976528651,-0.12970751523972,-0.32892033457756,-116.48685455322266,0.01563699729741,-0.03770584613085,9.51161003112793,-0.64044559001923,3.50551342964172,0.36525902152061
186,1976536984,-0.12971398234367,-0.32830584049225,-116.48633575439453,0.03670605272055,-0.03050753846765,9.51092815399170,-0.62533301115036,3.61916279792786,0.38518679141998
187,1976545317,-0.13005539774895,-0.32865643501282,-116.48584747314453,0.01559814251959,-0.02674922533333,9.50794696807861,-0.66621351242065,3.49775218963623,0.37924438714981
188,1976553650,-0.13081893324852,-0.32898429036140,-116.48539733886719,0.01729765906930,-0.02142485044897,9.49506568908691,-0.71680164337158,3.50623059272766,0.37491557002068
189,1976561983,-0.13095948100090,-0.32928371429443,-116.48522949218750,0.01874906942248,-0.02203537710011,9.48749923706055,-0.64203351736069,3.50243902206421,0.33180677890778
190,1976570316,-0.13046066462994,-0.32943344116211,-116.48531341552734,0.02058424800634,-0.04150052741170,9.48651885986328,-0.56688147783279,3.52764391899109,0.31308281421661
191,1976578649,-0.13022321462631,-0.32873466610909,-116.48611450195312,0.02582056634128,-0.01374075748026,9.49174213409424,-0.59700369834900,3.62328696250916,0.22719827294350
192,1976586982,-0.13073743879795,-0.32840320467949,-116.48533630371094,0.03151050955057,-0.02629757113755,9.51572608947754,-0.68629497289658,3.58576226234436,0.41602641344070
193,1976595315,-0.13064841926098,-0.32852646708488,-116.48531341552734,0.04057411849499,-0.03446191176772,9.50637245178223,-0.61362749338150,3.52375054359436,0.33388158679008
194,1976603648,-0.13051012158394,-0.32897770404816,-116.48498535156250,0.02289334870875,-0.02935710735619,9.46392345428467,-0.61070752143860,3.49119496345520,0.36139127612114
195,1976611981,-0.12960617244244,-0.32906380295753,-116.48464202880859,0.02485283650458,-0.02913254871964,9.51455116271973,-0.51598596572876,3.52815580368042,0.36799967288971
196,1976620314,-0.13002356886864,-0.32890319824219,-116.48417663574219,0.03544317558408,-0.03328455612063,9.50205230712891,-0.67433303594589,3.56427192687988,0.37727203965187
197,1976628647,-0.12984956800938,-0.32822394371033,-116.48431396484375,0.02967588230968,-0.02566832117736,9.48881721496582,-0.60471355915070,3.61947059631348,0.31574663519859
198,1976636980,-0.13001687824726,-0.32889506220818,-116.48529815673828,0.02019698359072,-0.04683268070221,9.49178886413574,-0.64641368389130,3.46550369262695,0.20522128045559
199,1976645313,-0.12997287511826,-0.32864442467690,-116.48583221435547,0.01081704720855,-0.02711196616292,9.53419780731201,-0.61980050802231,3.56929278373718,0.25498971343040
200,1976653646,-0.12956605851650,-0.32806336879730,-116.48584747314453,0.02793900296092,-0.02306451275945,9.48579692840576,-0.57740890979767,3.61565423011780,0.32010108232498
201,1976661979,-0.12913797795773,-0.32814309000969,-116.48681640625000,0.02042659558356,-0.01487606018782,9.48945236206055,-0.57433521747589,3.52877092361450,0.20263423025608
202,1976670312,-0.12933188676834,-0.32772433757782,-116.48725128173828,0.02402412891388,-0.02181386388838,9.49187183380127,-0.64966654777527,3.59675025939941,0.26953855156898
203,1976678645,-0.12941749393940,-0.32775151729584,-116.48744201660156,0.03654300421476,-0.02033801749349,9.49791622161865,-0.63583499193192,3.53527688980103,0.30606454610825
204,1976686978,-0.12920260429382,-0.32763868570328,-116.48715972900391,0.01813853718340,-0.02503964304924,9.48537349700928,-0.60028243064880,3.55899572372437,0.35765159130096
205,1976695311,-0.12351323664188,-0.33182752132416,-116.47534179687500,0.02559345588088,-0.03394685313106,9.48705673217773,-0.60520035028458,3.53317666053772,0.30101853609085
206,1976703644,-0.12423876672983,-0.33253064751625,-116.47560119628906,0.03281133249402,-0.02408282272518,9.50544071197510,-0.71377903223038,3.46212244033813,0.29067033529282
207,1976711977,-0.12341532856226,-0.33287423849106,-116.47534179687500,0.03165021166205,-0.03432283550501,9.52734279632568,-0.52577060461044,3.49898147583008,0.35760036110878
208,1976720310,-0.12337490916252,-0.33364447951317,-116.47487640380859,0.01975113712251,-0.02452280186117,9.49277687072754,-0.62200325727463,3.45302939414978,0.37845030426979
209,1976728643,-0.12308538705111,-0.33382639288902,-116.47484588623047,0.00135897449218,-0.05688726529479,9.50341606140137,-0.58921712636948,3.51591277122498,0.32138186693192
210,1976736976,-0.12294831871986,-0.33354926109314,-116.47416687011719,0.01750999689102,-0.02997052669525,9.53376102447510,-0.61075860261917,3.58002471923828,0.40350103378296
211,1976745309,-0.12229507416487,-0.33312556147575,-116.47406768798828,0.02477694489062,-0.00410576723516,9.53782844543457,-0.54656934738159,3.58914327621460,0.33792856335640
212,1976753642,-0.12143832445145,-0.33418092131615,-116.47442626953125,0.01701719313860,-0.02563910931349,9.52386379241943,-0.52333724498749,3.41965436935425,0.27701795101166
213,1976761975,-0.12039447575808,-0.33429899811745,-116.47453308105469,0.03591151162982,-0.01949637755752,9.49554920196533,-0.49961841106415,3.52410864830017,0.31323644518852
214,1976770308,-0.12030184268951,-0.33495599031448,-116.47449493408203,0.02347821183503,-0.01866682991385,9.52412033081055,-0.61480569839478,3.46737360954285,0.32537764310837
215,1976778641,-0.12055632472038,-0.33541530370712,-116.47489166259766,0.01975259743631,-0.02413736656308,9.49120426177979,-0.65709483623505,3.48540616035461,0.28249943256378
216,1976786974,-0.12057638913393,-0.33512091636658,-116.47442626953125,0.01123644504696,-0.02987226657569,9.50703144073486,-0.62840670347214,3.58086943626404,0.37750253081322
217,1976795307,-0.12080139666796,-0.33527132868767,-116.47501373291016,0.03253080323339,-0.02844044566154,9.48711490631104,-0.65258675813675,3.52175283432007,0.25145497918129
218,1976803640,-0.12059662491083,-0.33467400074005,-116.47470855712891,0.01966927573085,-0.02634566277266,9.50010204315186,-0.60094827413559,3.61767721176147,0.35857361555099
219,1976811973,-0.12089096009731,-0.33503407239914,-116.47484588623047,0.02607620880008,-0.03093210980296,9.49407958984375,-0.66052711009979,3.49534440040588,0.30404099822044
220,1976820306,-0.12061697989702,-0.33532837033272,-116.47560119628906,0.04297395795584,-0.01283163949847,9.49710273742676,-0.59490346908569,3.51122522354126,0.23242357373238
221,1976828639,-0.12027768790722,-0.33559250831604,-116.47562408447266,0.00933334697038,-0.02394727803767,9.48256778717041,-0.58506762981415,3.50592303276062,0.32204779982567
222,1976836972,-0.12009259313345,-0.33602800965309,-116.47524261474609,0.03412655740976,-0.02284393459558,9.48713111877441,-0.60289508104324,3.49488329887390,0.36689832806587
223,1976845305,-0.12017508596182,-0.33621880412102,-116.47572326660156,0.03873988986015,-0.02706725150347,9.52125644683838,-0.63537395000458,3.51501607894897,0.26579895615578
224,1976853638,-0.12097760289907,-0.33626696467400,-116.47502899169922,0.02087804302573,-0.02799979969859,9.48565387725830,-0.72289782762527,3.54060459136963,0.40526846051216
225,1976861971,-0.12090384960175,-0.33610588312149,-116.47535705566406,0.02475102618337,-0.03377025574446,9.51558113098145,-0.61607366800308,3.55880379676819,0.28745576739311
226,1976870304,-0.12103830277920,-0.33664208650589,-116.47513580322266,0.00467094453052,-0.02435778267682,9.51104259490967,-0.64200794696808,3.48084640502930,0.34832799434662
227,1976878637,-0.12091620266438,-0.33704784512520,-116.47496032714844,0.02284751273692,-0.03862359747291,9.52590179443359,-0.61157834529877,3.49047780036926,0.33718582987785
228,1976886970,-0.12060037255287,-0.33663842082024,-116.47494506835938,0.03252808004618,-0.03519103303552,9.49044895172119,-0.58760333061218,3.59531641006470,0.32209897041321
229,1976895303,-0.12016092985868,-0.33691462874413,-116.47451019287109,0.01620861142874,-0.02866743691266,9.49673843383789,-0.57228600978851,3.50607633590698,0.38275352120399
230,1976903636,-0.12001237273216,-0.33720609545708,-116.47453308105469,0.02709618210793,-0.03365211188793,9.47278594970703,-0.60924738645554,3.51160907745361,0.31684809923172
231,1976911969,-0.11968013644218,-0.33738657832146,-116.47529602050781,0.03386543318629,-0.03655841946602,9.51174259185791,-0.58473461866379,3.51611757278442,0.23132218420506
232,1976920302,-0.11951828002930,-0.33769023418427,-116.47491455078125,0.03794470429420,-0.01790790818632,9.47348308563232,-0.60819715261459,3.50984168052673,0.36858880519867
233,1976928635,-0.11847598105669,-0.33776479959488,-116.47480773925781,0.04100440070033,-0.02993795461953,9.49299621582031,-0.49949046969414,3.53112745285034,0.33964475989342
234,1976936968,-0.11865051090717,-0.33764964342117,-116.47432708740234,0.03764878958464,-0.01656212843955,9.51984882354736,-0.64687472581863,3.55925202369690,0.37901383638382
235,1976945301,-0.11890148371458,-0.33811187744141,-116.47457885742188,0.02143111079931,-0.02806375361979,9.49955844879150,-0.65514808893204,3.48304915428162,0.29635667800903
236,1976953634,-0.11928718537092,-0.33889454603195,-116.47470855712891,0.03138570860028,-0.01397466380149,9.48834609985352,-0.67236089706421,3.45341396331787,0.30391290783882
237,1976961967,-0.11889925599098,-0.33923345804214,-116.47566986083984,0.01821848563850,-0.04132247716188,9.50101661682129,-0.57973974943161,3.49785399436951,0.20832055807114
238,1976970300,-0.11939661949873,-0.33994621038437,-116.47569274902344,0.03760515525937,-0.01828057318926,9.50938320159912,-0.68611568212509,3.46030354499817,0.31687369942665
239,1976978633,-0.11944792419672,-0.33969464898109,-116.47627258300781,0.01940158940852,-0.01083101239055,9.50520992279053,-0.63209533691406,3.56790947914124,0.25386267900467
240,1976986966,-0.11938364803791,-0.33952102065086,-116.47660064697266,0.03153030574322,-0.02799041569233,9.51402378082275,-0.61851972341537,3.56816530227661,0.28119304776192
241,1976995299,-0.11880207061768,-0.33998036384583,-116.47602081298828,0.03280122950673,-0.02022131904960,9.47597885131836,-0.55607223510742,3.48358702659607,0.39684134721756
242,1977003632,-0.11957278847694,-0.34079083800316,-116.47610473632812,0.04106301069260,-0.01833769492805,9.50034809112549,-0.71915811300278,3.44880294799805,0.31244242191315
243,1977011965,-0.11976639181376,-0.34090521931648,-116.47581481933594,0.01497468911111,-0.05857827514410,9.51913261413574,-0.64787364006042,3.52457022666931,0.36607867479324
244,1977020298,-0.11969390511513,-0.34150576591492,-116.47576141357422,0.01727113313973,-0.00930301193148,9.50973606109619,-0.61752080917358,3.47539091110229,0.32606926560402
245,1977028631,-0.11967397481203,-0.34184861183167,-116.47595214843750,0.02044853195548,-0.02299123443663,9.48437118530273,-0.62231069803238,3.49680447578430,0.29950726032257
246,1977036964,-0.11968032270670,-0.34134277701378,-116.47568511962891,0.02200126647949,-0.03325171396136,9.52499294281006,-0.62820190191269,3.60658621788025,0.35288727283478
247,1977045297,-0.12021793425083,-0.34116056561470,-116.47522735595703,0.02478189580142,-0.02983772382140,9.49299335479736,-0.68911248445511,3.56094145774841,0.37880885601044
248,1977053630,-0.11992353945971,-0.34147521853447,-116.47603607177734,0.01706528291106,-0.02912467531860,9.51750373840332,-0.59088200330734,3.50766491889954,0.22553335130215
249,1977061963,-0.11970776319504,-0.34157419204712,-116.47692108154297,0.03502200916409,-0.02453904040158,9.46565055847168,-0.59974449872971,3.52851486206055,0.21318729221821
250,1977070296,-0.11957764625549,-0.34291464090347,-116.47673034667969,0.03005277551711,-0.03416083380580,9.50209903717041,-0.61196255683899,3.38551044464111,0.34353816509247
251,1977078629,-0.11870768666267,-0.34248623251915,-116.47722625732422,0.03070973977447,-0.03350363299251,9.50411701202393,-0.52085268497467,3.58927178382874,0.26779684424400
252,1977086962,-0.11901617050171,-0.34226682782173,-116.47771453857422,0.04297763109207,-0.02242707833648,9.48586559295654,-0.66365200281143,3.57400560379028,0.26223856210709
253,1977095295,-0.11921991407871,-0.34249344468117,-116.47852325439453,0.02770125120878,-0.04335541650653,9.48850059509277,-0.65056318044662,3.51204490661621,0.22371473908424
254,1977103628,-0.11977090686560,-0.34163007140160,-116.47904205322266,0.01928444579244,-0.01731199584901,9.47739791870117,-0.69246798753738,3.64877343177795,0.25862696766853
255,1977111961,-0.12009170651436,-0.34103372693062,-116.47921752929688,0.01447517611086,-0.00531741697341,9.51752758026123,-0.66334456205368,3.60950660705566,0.30381041765213
256,1977120294,-0.12032153457403,-0.34076613187790,-116.47927093505859,0.02822446636856,-0.04481024295092,9.52745532989502,-0.65476387739182,3.57889771461487,0.31577226519585
257,1977128627,-0.11995166540146,-0.34072259068489,-116.48009490966797,0.00970346387476,-0.03276601433754,9.51367568969727,-0.58020091056824,3.54577875137329,0.21759293973446
258,1977136960,-0.11980268359184,-0.34028866887093,-116.48078918457031,0.01144741848111,-0.03644268587232,9.52175903320312,-0.61075866222382,3.59767293930054,0.23936502635479
259,1977145293,-0.12019039690495,-0.34038591384888,-116.48126983642578,0.03602376207709,-0.02731329202652,9.51772975921631,-0.67131072282791,3.52856612205505,0.26754069328308
260,1977153626,-0.11961350589991,-0.34120178222656,-116.48140716552734,0.01553654018790,-0.02878647856414,9.51198959350586,-0.55704557895660,3.44701027870178,0.30445083975792
261,1977161959,-0.11935218423605,-0.34165072441101,-116.48232269287109,0.02901411801577,-0.04543180391192,9.47450351715088,-0.59539008140564,3.48563671112061,0.20757777988911
262,1977170292,-0.11932123452425,-0.34137779474258,-116.48346710205078,0.04001469165087,-0.03716878965497,9.50838756561279,-0.62319433689117,3.57934617996216,0.18315461277962
263,1977178625,-0.11901900917292,-0.34075924754143,-116.48372650146484,0.01001295819879,-0.05170490592718,9.50986289978027,-0.58829486370087,3.61234927177429,0.29246327280998
264,1977186958,-0.11838340014219,-0.34052333235741,-116.48358917236328,0.02128658443689,-0.03226327523589,9.50173282623291,-0.55112874507904,3.57441568374634,0.33920934796333
265,1977195291,-0.11853492259979,-0.34031221270561,-116.48381042480469,0.01268069166690,-0.02069344371557,9.50912666320801,-0.64244335889816,3.56411814689636,0.29753494262695
266,1977203624,-0.11855154484510,-0.33987545967102,-116.48377990722656,0.00931041501462,-0.02052258886397,9.53720188140869,-0.62955945730209,3.59944009780884,0.32471165060997
267,1977211957,-0.11918948590755,-0.33984988927841,-116.48398590087891,0.02546778693795,-0.03910720720887,9.51831436157227,-0.70133054256439,3.54139828681946,0.29615178704262
268,1977220290,-0.11908482760191,-0.34016606211662,-116.48386383056641,0.03287049755454,-0.03541558235884,9.50171470642090,-0.61306393146515,3.50868940353394,0.33728823065758
269,1977228623,-0.11851277202368,-0.34116497635841,-116.48406982421875,0.02812236919999,-0.03429906070232,9.48039054870605,-0.55725055932999,3.41868090629578,0.29858514666557
270,1977236956,-0.11871694773436,-0.34092649817467,-116.48364257812500,0.03924928233027,-0.03540815412998,9.49607181549072,-0.65061432123184,3.57387685775757,0.37166246771812
271,1977245289,-0.11867228150368,-0.34035050868988,-116.48341369628906,0.02276022732258,-0.01007859222591,9.51720523834229,-0.61939060688019,3.60720133781433,0.35201641917229
272,1977253622,-0.11896318197250,-0.34092754125595,-116.48427581787109,0.03521130234003,-0.02576768957078,9.50897502899170,-0.66229444742203,3.47761893272400,0.21549254655838
273,1977261955,-0.11846052110195,-0.34151691198349,-116.48435974121094,0.04347948729992,-0.01198460441083,9.50322628021240,-0.56461453437805,3.46873092651367,0.31951195001602
274,1977270288,-0.11861407756805,-0.34173789620399,-116.48450469970703,0.03620019927621,-0.03687130287290,9.52599811553955,-0.64559400081635,3.51875567436218,0.30534732341766
275,1977278621,-0.11906407028437,-0.34249630570412,-116.48427581787109,0.02114570327103,-0.02277617156506,9.48799896240234,-0.67832905054092,3.44823980331421,0.34484449028969
276,1977286954,-0.11953441053629,-0.34293794631958,-116.48460388183594,0.01528633479029,-0.02631197869778,9.51682376861572,-0.68373358249664,3.49293661117554,0.28073203563690
277,1977295287,-0.11922577023506,-0.34268745779991,-116.48506927490234,0.01779878512025,-0.02175712771714,9.51410770416260,-0.58814126253128,3.57047057151794,0.27299651503563
278,1977303620,-0.11871733516455,-0.34275278449059,-116.48472595214844,0.00313757010736,-0.02342841960490,9.50841522216797,-0.56414073705673,3.53773570060730,0.36441370844841
279,1977311953,-0.11847545951605,-0.34330725669861,-116.48487854003906,0.02244618162513,-0.02809439040720,9.45842361450195,-0.59620970487595,3.47282910346985,0.30918940901756
280,1977320286,-0.11819209903479,-0.34412029385567,-116.48524475097656,0.02389362081885,-0.02885004132986,9.49419403076172,-0.59252125024796,3.44926381111145,0.27548107504845
281,1977328619,-0.11794837564230,-0.34374880790710,-116.48477935791016,0.02963264100254,-0.03176358342171,9.49212169647217,-0.59615850448608,3.58358526229858,0.38234367966652
282,1977336952,-0.11825993657112,-0.34456077218056,-116.48503875732422,0.01867270655930,-0.02613086439669,9.50411415100098,-0.66349834203720,3.44959735870361,0.28931280970573
283,1977345285,-0.11812933534384,-0.34419128298759,-116.48585510253906,0.02366817928851,-0.02156687714159,9.50036048889160,-0.61073303222656,3.58430266380310,0.22458563745022
284,1977353618,-0.11785937100649,-0.34469866752625,-116.48592376708984,0.01220707967877,-0.03176217898726,9.50507164001465,-0.59510833024979,3.48512434959412,0.31341579556465
285,1977361951,-0.11796201020479,-0.34505057334900,-116.48632049560547,0.02545478194952,-0.03114815615118,9.51996612548828,-0.63580936193466,3.49665069580078,0.27307337522507
286,1977370284,-0.11732979118824,-0.34482377767563,-116.48704528808594,0.02211778797209,-0.02806655317545,9.51689815521240,-0.55130797624588,3.57415914535522,0.23516426980495
287,1977378617,-0.11741033941507,-0.34504809975624,-116.48787689208984,0.03399937599897,-0.02131784334779,9.52591323852539,-0.63591182231903,3.51217293739319,0.23032318055630
288,1977386950,-0.11755094677210,-0.34505537152290,-116.48760986328125,0.01441882085055,-0.03030322678387,9.52161598205566,-0.64264833927155,3.54567599296570,0.35406556725502
289,1977395283,-0.11786197125912,-0.34473183751106,-116.48828887939453,0.03877203166485,-0.01586130261421,9.52029228210449,-0.66324210166931,3.57782125473022,0.24484643340111
290,1977403616,-0.11802797764540,-0.34587490558624,-116.48815155029297,0.02092563547194,-0.02178087271750,9.50121688842773,-0.64736145734787,3.40833282470703,0.33741635084152
291,1977411949,-0.11771702021360,-0.34598138928413,-116.48780059814453,0.02751068584621,-0.02316439151764,9.48189926147461,-0.58678370714188,3.52562022209167,0.36367091536522
292,1977420282,-0.11736135184765,-0.34648510813713,-116.48807525634766,0.01902544125915,-0.04179058223963,9.47719764709473,-0.58427351713181,3.48553419113159,0.28900542855263
293,1977428615,-0.11859492212534,-0.34680241346359,-116.48741912841797,0.01974610984325,-0.03145689144731,9.51167488098145,-0.77274310588837,3.50036478042603,0.39825016260147
294,1977436948,-0.11935932934284,-0.34639233350754,-116.48745727539062,0.01674966141582,-0.02129261195660,9.50930690765381,-0.71797972917557,3.59572625160217,0.31736037135124
295,1977445281,-0.11959285289049,-0.34634858369827,-116.48683166503906,0.03364877775311,-0.02678880281746,9.50764560699463,-0.65271478891373,3.54534339904785,0.39750733971596
296,1977453614,-0.11975481361151,-0.34591481089592,-116.48695373535156,0.04120716080070,-0.01992326602340,9.49733924865723,-0.64602935314178,3.59762120246887,0.30752447247505
297,1977461947,-0.12021434307098,-0.34614238142967,-116.48744201660156,0.05137130618095,-0.02300169691443,9.49326419830322,-0.68106973171234,3.51053380966187,0.26556840538979
298,1977470280,-0.12021373212337,-0.34611490368843,-116.48782348632812,0.03913689032197,-0.02165316604078,9.49253845214844,-0.62630641460419,3.55028653144836,0.27414914965630
299,1977478613,-0.12072405964136,-0.34569925069809,-116.48826599121094,0.05147154256701,-0.02031994424760,9.49946498870850,-0.68711465597153,3.58950185775757,0.26618310809135
300,1977486946,-0.12064408510923,-0.34562808275223,-116.48797607421875,0.03120568580925,-0.02641770988703,9.52266311645508,-0.61670112609863,3.55353999137878,0.35639649629593
301,1977495279,-0.12130802869797,-0.34555873274803,-116.48735046386719,0.00365043035708,-0.02472762763500,9.52582740783691,-0.70368701219559,3.54823732376099,0.39159041643143
302,1977503612,-0.12171100080013,-0.34597504138947,-116.48723602294922,0.01845521293581,-0.04319249466062,9.50660228729248,-0.67466616630554,3.49649691581726,0.33472687005997
303,1977511945,-0.12247163057327,-0.34514665603638,-116.48745727539062,0.02440966106951,-0.03157440200448,9.46641349792480,-0.71610999107361,3.63678598403931,0.29461497068405
304,1977520278,-0.12261185050011,-0.34547898173332,-116.48723602294922,0.03053499013186,-0.03644042089581,9.48238468170166,-0.64313513040543,3.50705003738403,0.34620201587677
305,1977528611,-0.12349110096693,-0.34569606184959,-116.48730468750000,0.01336032524705,-0.02307830937207,9.51217555999756,-0.73096632957458,3.51304388046265,0.31656634807587
306,1977536944,-0.12330950051546,-0.34552127122879,-116.48673248291016,0.02113687805831,-0.01839496381581,9.48601055145264,-0.60443198680878,3.56616783142090,0.38961815834045
307,1977545277,-0.12372504919767,-0.34565144777298,-116.48667907714844,0.02306134626269,-0.02477448992431,9.48239898681641,-0.67553710937500,3.52413463592529,0.33424019813538
308,1977553610,-0.12405019253492,-0.34548327326775,-116.48697662353516,0.03295930474997,-0.01853815093637,9.49670028686523,-0.66480469703674,3.56629586219788,0.28467664122581
309,1977561943,-0.12348350882530,-0.34518265724182,-116.48695373535156,0.02171088010073,-0.02699541300535,9.52128219604492,-0.55645644664764,3.57474827766418,0.32238072156906
310,1977570276,-0.12372703850269,-0.34582245349884,-116.48699188232422,0.04152931272984,-0.03799453005195,9.48097991943359,-0.65583962202072,3.46965289115906,0.31730914115906
311,1977578609,-0.12399882078171,-0.34574675559998,-116.48735046386719,0.01709602400661,-0.01775171793997,9.50048828125000,-0.65868288278580,3.54864716529846,0.27512249350548
312,1977586942,-0.12412100285292,-0.34513166546822,-116.48754119873047,0.03124578669667,-0.02641071751714,9.49561309814453,-0.64054793119431,3.61921429634094,0.29674091935158
313,1977595275,-0.12432041019201,-0.34487032890320,-116.48800659179688,0.01926154643297,-0.03713318705559,9.48615360260010,-0.64997404813766,3.57082962989807,0.26779684424400
314,1977603608,-0.12412033230066,-0.34418937563896,-116.48863220214844,0.01146251335740,-0.03447147086263,9.48923492431641,-0.60256201028824,3.62723183631897,0.24758718907833
315,1977611941,-0.12407211214304,-0.34500241279602,-116.48835754394531,0.03778262808919,-0.01011782884598,9.48006439208984,-0.61821240186691,3.44114470481873,0.35012099146843
316,1977620274,-0.12320280820131,-0.34520781040192,-116.48885345458984,0.03269320353866,-0.02874624729156,9.51217746734619,-0.52343970537186,3.52080512046814,0.26149573922157
317,1977628607,-0.12283440679312,-0.34495696425438,-116.48896026611328,0.02436641231179,-0.02428475581110,9.51713371276855,-0.58089244365692,3.57085514068604,0.30783188343048
318,1977636940,-0.12329594790936,-0.34457156062126,-116.48954772949219,0.03154310211539,-0.01289957389235,9.49923229217529,-0.68299067020416,3.59196066856384,0.25073772668839
319,1977645273,-0.12321582436562,-0.34457468986511,-116.48999786376953,0.03879358246922,-0.02775766327977,9.48527050018311,-0.61549735069275,3.53881168365479,0.27315023541451
320,1977653606,-0.12382733076811,-0.34407919645309,-116.48946380615234,0.02087259665132,-0.03290873765945,9.49746131896973,-0.69825679063797,3.60535717010498,0.38385489583015
321,1977661939,-0.12435760349035,-0.34500741958618,-116.48928833007812,0.01532920729369,-0.02185108140111,9.50616550445557,-0.68857467174530,3.42705678939819,0.32939910888672
322,1977670272,-0.12386213243008,-0.34529742598534,-116.48923492431641,0.02769817598164,-0.03579596057534,9.50018978118896,-0.56690710783005,3.51189112663269,0.32829767465591
323,1977678605,-0.12407140433788,-0.34469184279442,-116.48965454101562,0.00615045335144,-0.04596653953195,9.49066352844238,-0.65130585432053,3.61065864562988,0.27952808141708
324,1977686938,-0.12373524159193,-0.34482112526894,-116.48912048339844,0.01504944823682,-0.03984352573752,9.50678825378418,-0.58555418252945,3.53051233291626,0.38408544659615
325,1977695271,-0.12360168993473,-0.34504792094231,-116.48887634277344,0.01731137558818,-0.02617029845715,9.48706912994385,-0.60945236682892,3.51130199432373,0.34850731492043
326,1977703604,-0.12276831269264,-0.34510993957520,-116.48861694335938,0.03365427255630,-0.02493743412197,9.49388980865479,-0.52577066421509,3.53868365287781,0.35265681147575
327,1977711937,-0.12219675630331,-0.34551778435707,-116.48838806152344,0.02198603004217,-0.02424908056855,9.50117588043213,-0.55684059858322,3.48947834968567,0.35783085227013
328,1977720270,-0.12161261588335,-0.34549382328987,-116.48849487304688,0.03110269829631,-0.01034062914550,9.51399421691895,-0.55548310279846,3.54867339134216,0.30893328785896
329,1977728603,-0.12282913178205,-0.34573462605476,-116.48833465576172,0.02088391780853,-0.05623007938266,9.46854877471924,-0.77095001935959,3.51076388359070,0.34381985664368
330,1977736936,-0.12006365507841,-0.34607261419296,-116.48860168457031,0.04446693882346,-0.08878684043884,9.45986366271973,-0.29519122838974,3.50471878051758,0.28769907355309
331,1977745269,-0.12101433426142,-0.34403541684151,-116.48775482177734,0.02018398791552,0.14672121405602,9.55639362335205,-0.73844546079636,3.78370881080627,0.43592861294746
332,1977753602,-0.12546244263649,-0.34702187776566,-116.48681640625000,-0.01214435044676,-0.26593902707100,9.46443843841553,-1.15903127193451,3.18710231781006,0.43387949466705
333,1977761935,-0.11473351716995,-0.34240040183067,-116.48802947998047,0.16200211644173,0.27155885100365,9.47401142120361,0.66118019819260,4.09430742263794,0.18437127768993
334,1977770268,-0.12997308373451,-0.34979021549225,-116.48567962646484,-0.14886933565140,-0.45140793919563,9.50439071655273,-2.45311355590820,2.65821957588196,0.60375308990479
335,1977778601,-0.11760704219341,-0.33948269486427,-116.49131011962891,0.08683604001999,0.72665494680405,9.59109783172607,0.85518240928650,4.77820777893066,-0.34652218222618
336,1977786934,-0.11862808465958,-0.35324573516846,-116.48339843750000,0.32763114571571,-0.95650291442871,9.17634010314941,-0.74461865425110,1.89199554920197,1.26339662075043
337,1977795267,-0.13031080365181,-0.34770458936691,-116.48867034912109,-0.59355723857880,0.20858518779278,9.88778686523438,-2.02940320968628,4.20613956451416,-0.28840351104736
338,1977803600,-0.13001854717731,-0.33952254056931,-116.49211883544922,0.19597515463829,0.66452336311340,9.47347068786621,-0.59400695562363,4.52869939804077,-0.08884298056364
339,1977811933,-0.11351813375950,-0.34477943181992,-116.48937988281250,0.34192112088203,0.19848486781120,9.33566093444824,1.35632503032684,2.90521788597107,0.65411067008972
340,1977820266,-0.10726525634527,-0.34905230998993,-116.48517608642578,0.01759837195277,-0.41661825776100,9.47322750091553,0.12827609479427,3.03321218490601,0.82490646839142
341,1977828599,-0.10531210899353,-0.34917202591896,-116.48401641845703,0.11771862953901,-0.32893422245979,9.41226577758789,-0.39139837026596,3.52298212051392,0.47939604520798
342,1977836932,-0.10470712184906,-0.34994390606880,-116.48413848876953,0.08874457329512,-0.17951908707619,9.39639568328857,-0.55356210470200,3.45423364639282,0.30683293938637
343,1977845265,-0.10503284633160,-0.34889391064644,-116.48474121093750,0.02422816678882,0.09293204545975,9.45506763458252,-0.66380566358566,3.66491007804871,0.24758718907833
344,1977853598,-0.10399491339922,-0.34690213203430,-116.48538208007812,-0.06227158382535,0.38509821891785,9.58236026763916,-0.50366550683975,3.78391385078430,0.24474401772022
345,1977861931,-0.10788647085428,-0.34365561604500,-116.48802947998047,-0.28647962212563,0.40666162967682,9.73317432403564,-1.09261345863342,3.92973566055298,0.00663408637047
346,1977870264,-0.12335106730461,-0.34403416514397,-116.49063873291016,-0.31171289086342,-0.09566398710012,9.76779842376709,-2.48505496978760,3.50185036659241,0.00868322607130
347,1977878597,-0.13707907497883,-0.34765505790710,-116.49065399169922,0.18103888630867,-1.02302813529968,9.47361755371094,-2.27273821830750,3.10421490669250,0.32112565636635
348,1977886930,-0.12591864168644,-0.35205614566803,-116.48782348632812,0.75328487157822,-0.69749426841736,9.04364395141602,0.71573859453201,3.01720333099365,0.65961772203445
349,1977895263,-0.10397559404373,-0.34757909178734,-116.48738861083984,-0.10973133891821,1.19426238536835,9.47534084320068,2.00774621963501,4.07445669174194,0.37755385041237
350,1977903596,-0.12343279272318,-0.34582871198654,-116.48989105224609,-0.89154893159866,0.50566792488098,9.96440124511719,-2.96332359313965,3.75750613212585,0.02118297480047
351,1977911929,-0.13604286313057,-0.35324093699455,-116.48827362060547,0.81648576259613,-1.74580514431000,9.16920852661133,-2.13672685623169,2.64945960044861,0.51699775457382
352,1977920262,-0.10264000296593,-0.34961444139481,-116.48756408691406,0.16461768746376,1.25885295867920,9.43778610229492,3.38256502151489,3.98119521141052,0.40644672513008
353,1977928595,-0.13386137783527,-0.34915310144424,-116.49036407470703,-0.93471485376358,-0.13940639793873,9.94279193878174,-4.37310600280762,3.59372830390930,-0.00933638960123
354,1977936928,-0.11749257892370,-0.35484257340431,-116.48584747314453,1.29370093345642,-1.02490782737732,8.81357765197754,1.34082841873169,2.86226248741150,0.86289232969284
355,1977945261,-0.11678647249937,-0.34904840588570,-116.49098205566406,-1.17389214038849,1.61450564861298,10.34293746948242,-0.54339313507080,4.23493003845215,-0.27239459753036
356,1977953594,-0.13248555362225,-0.35557112097740,-116.48583221435547,1.16643691062927,-2.10536479949951,8.44040679931641,-2.50726222991943,2.76213669776917,0.93755775690079
357,1977961927,-0.10626321285963,-0.34912142157555,-116.49134826660156,-1.06771719455719,2.30716443061829,10.73836135864258,2.51872444152832,4.31287336349487,-0.33945265412331
358,1977970260,-0.14220103621483,-0.35600379109383,-116.48491668701172,1.07094204425812,-2.36871170997620,8.08504867553711,-4.93477439880371,2.71869492530823,1.09167873859406
359,1977978593,-0.10582233965397,-0.35005393624306,-116.49153137207031,-1.14892339706421,2.37120127677917,11.29254150390625,3.73488831520081,4.25365304946899,-0.46834352612495
360,1977986926,-0.13806545734406,-0.35482951998711,-116.48450469970703,1.32161223888397,-2.44515609741211,7.22769355773926,-4.48990678787231,2.97068786621094,1.16488420963287
361,1977995259,-0.11896455287933,-0.35137566924095,-116.49021911621094,-1.14304089546204,1.92558443546295,11.88220596313477,1.66233825683594,3.95430016517639,-0.35771560668945
362,1978003592,-0.11067979037762,-0.35112851858139,-116.48685455322266,0.77441447973251,-1.05294609069824,7.34559726715088,0.36974149942398,3.57536292076111,0.72506213188171
363,1978011925,-0.15912482142448,-0.35517841577530,-116.48529815673828,-0.16027328372002,-0.10345190763474,10.94045734405518,-6.43802309036255,3.05160331726074,0.51154196262360
364,1978020258,-0.08070857077837,-0.34920194745064,-116.49272918701172,-0.51419883966446,1.26926779747009,9.54989242553711,8.77930450439453,4.26395034790039,-0.57092845439911
365,1978028591,-0.15691886842251,-0.35426294803619,-116.48339843750000,1.10352027416229,-2.14627695083618,7.67737150192261,-9.76379966735840,2.92998695373535,1.44646155834198
366,1978036924,-0.11888179183006,-0.35223087668419,-116.49081420898438,-1.04177105426788,1.98958766460419,12.34729480743408,3.93278408050537,3.79208469390869,-0.56982707977295
367,1978045257,-0.10079330950975,-0.34911584854126,-116.48979187011719,0.36118572950363,-0.67916852235794,7.39001512527466,1.54604959487915,3.91170358657837,0.45250111818314
368,1978053590,-0.16379404067993,-0.35406270623207,-116.48312377929688,0.68932968378067,-1.15358817577362,9.39415264129639,-8.18135356903076,2.95047831535339,1.11952137947083
369,1978061923,-0.10181299597025,-0.35067635774612,-116.49236297607422,-1.12764310836792,2.06725931167603,11.76511573791504,6.80542182922363,3.94797396659851,-0.78703594207764
370,1978070256,-0.11476157605648,-0.34955808520317,-116.48809814453125,0.66626870632172,-1.31205701828003,6.91895484924316,-2.17655706405640,3.67858886718750,0.83376908302307
371,1978078589,-0.16214883327484,-0.35446411371231,-116.48519134521484,0.48276540637016,-0.63789522647858,10.06969833374023,-6.30954170227051,2.94794201850891,0.67572909593582
372,1978086922,-0.10170175135136,-0.35015669465065,-116.49530029296875,-1.10224044322968,1.91621303558350,11.46789073944092,6.61994886398315,4.06684970855713,-0.89128589630127
373,1978095255,-0.11531883478165,-0.34841546416283,-116.49025726318359,0.64097869396210,-1.29743206501007,6.92297315597534,-2.25519251823425,3.74608182907104,0.92866975069046
374,1978103588,-0.16271023452282,-0.35327535867691,-116.48593902587891,0.56038302183151,-0.69798743724823,9.90588378906250,-6.31097555160522,2.96115899085999,0.83937841653824
375,1978111921,-0.10791496187449,-0.35067614912987,-116.49462890625000,-1.07472956180573,1.84331607818604,11.77542972564697,5.94357919692993,3.85258626937866,-0.72755956649780
376,1978120254,-0.10416622459888,-0.34825932979584,-116.49215698242188,0.38065141439438,-0.90342527627945,7.20023727416992,-0.17436888813972,3.83570528030396,0.61819952726364
377,1978128587,-0.16104720532894,-0.35383871197701,-116.48628234863281,0.80173534154892,-1.08552670478821,9.09626293182373,-7.44689226150513,2.86697626113892,1.02833485603333
378,1978136920,-0.12319899350405,-0.35369184613228,-116.49345397949219,-0.85416227579117,1.56020629405975,12.11450767517090,3.91096043586731,3.56537342071533,-0.54078048467636
379,1978145253,-0.08971916884184,-0.34946632385254,-116.49594116210938,-0.17931784689426,-0.05916698276997,8.04100990295410,3.39053058624268,4.04776620864868,0.02932829596102
380,1978153586,-0.14987657964230,-0.35349452495575,-116.48695373535156,0.96840584278107,-1.49239933490753,8.01699161529541,-7.83835268020630,3.05956912040710,1.39805054664612
381,1978161919,-0.14500179886818,-0.35559269785881,-116.49108886718750,-0.21750669181347,0.73864632844925,11.74753570556641,-0.04429981857538,3.28917527198792,-0.17180749773979
382,1978170252,-0.08692383766174,-0.35135245323181,-116.49901580810547,-0.79338204860687,1.01197874546051,9.64226531982422,6.33760261535645,4.05563020706177,-0.62763845920563
383,1978178585,-0.12672914564610,-0.35183447599411,-116.49139404296875,0.69156491756439,-1.30488348007202,7.33875560760498,-5.39593267440796,3.48010349273682,1.24019014835358
384,1978186918,-0.15988120436668,-0.35549095273018,-116.48820495605469,0.54820364713669,-0.52474999427795,10.19785976409912,-4.60263490676880,3.10541868209839,0.70116400718689
385,1978195251,-0.10738329589367,-0.35254055261612,-116.49687957763672,-1.00810396671295,1.60559010505676,11.44431400299072,5.66714906692505,3.89641165733337,-0.71831274032593
386,1978203584,-0.10064092278481,-0.34952947497368,-116.49507904052734,0.00504049286246,-0.33832237124443,7.87491512298584,0.18458895385265,3.90651655197144,0.53780925273895
387,1978211917,-0.15231189131737,-0.35321488976479,-116.48879241943359,1.03156483173370,-1.47781825065613,8.09647083282471,-6.82174921035767,3.09427642822266,1.07823121547699
388,1978220250,-0.14655548334122,-0.35535824298859,-116.49275970458984,-0.43308463692665,1.02717781066895,11.93045043945312,0.06201206147671,3.28958487510681,-0.15497893095016
389,1978228583,-0.09470199048519,-0.35059279203415,-116.49820709228516,-0.70198714733124,0.87694001197815,9.77390193939209,5.59468698501587,4.11239099502563,-0.32285460829735
390,1978236916,-0.12342835217714,-0.35031977295876,-116.49165344238281,0.64421761035919,-1.22613763809204,7.18535804748535,-4.06991004943848,3.57595252990723,1.10966002941132
391,1978245249,-0.16623492538929,-0.35492083430290,-116.48697662353516,0.58502739667892,-0.50904494524002,10.23243808746338,-5.75819540023804,2.98472428321838,0.88661104440689
392,1978253582,-0.11710295081139,-0.35315272212029,-116.49626922607422,-0.79692649841309,1.33447360992432,11.41559410095215,5.26165056228638,3.76198792457581,-0.79428458213806
393,1978261915,-0.09718035906553,-0.34896108508110,-116.49732208251953,-0.31703186035156,0.13421237468719,8.41347122192383,1.76625514030457,4.04323291778564,0.20094366371632
394,1978270248,-0.14758835732937,-0.35223820805550,-116.48909759521484,1.06199407577515,-1.54908442497253,7.79447364807129,-6.66934537887573,3.15049982070923,1.30555760860443
395,1978278581,-0.15231865644455,-0.35549408197403,-116.49153900146484,-0.04986979812384,0.43203586339951,11.29314041137695,-1.19614648818970,3.14873290061951,0.02638266421854
396,1978286914,-0.10362125188112,-0.35211572051048,-116.49880981445312,-0.92403900623322,1.29126834869385,10.75929737091064,5.21270179748535,3.95250678062439,-0.54818308353424
397,1978295247,-0.10821776092052,-0.34980723261833,-116.49655151367188,0.35962885618210,-0.90004068613052,7.22150611877441,-1.17529630661011,3.81590580940247,0.59868144989014
398,1978303580,-0.16045707464218,-0.35441741347313,-116.48920440673828,0.80653482675552,-0.95498698949814,9.12990379333496,-6.88924360275269,2.99092316627502,1.20502173900604
399,1978311913,-0.13962054252625,-0.35521918535233,-116.49502563476562,-0.40823695063591,0.92788666486740,11.64030265808105,1.87073552608490,3.44385886192322,-0.37636271119118
400,1978320246,-0.09463769197464,-0.35097891092300,-116.50095367431641,-0.72281140089035,0.80954313278198,9.45632266998291,4.76761674880981,4.05641126632690,-0.38938760757446
401,1978328579,-0.12954160571098,-0.35116156935692,-116.49379730224609,0.69232410192490,-1.22790527343750,7.43456029891968,-4.80882930755615,3.51427292823792,1.18619525432587
402,1978336912,-0.16237600147724,-0.35516852140427,-116.49081420898438,0.63907921314240,-0.61412131786346,9.85198402404785,-4.56367540359497,3.06417989730835,0.67634391784668
403,1978345245,-0.12776657938957,-0.35526689887047,-116.49727630615234,-0.82009994983673,1.37647891044617,11.74823856353760,3.52300786972046,3.52933406829834,-0.44938898086548
404,1978353578,-0.09732272475958,-0.35068425536156,-116.49976348876953,-0.35283046960831,0.17221492528915,8.53828716278076,3.02552771568298,4.09658718109131,0.02377000823617
405,1978361911,-0.13922896981239,-0.35245016217232,-116.49359130859375,0.81477051973343,-1.27610647678375,7.62169981002808,-5.65097332000732,3.32483005523682,1.06375920772552
406,1978370244,-0.16296651959419,-0.35609900951385,-116.49219512939453,0.37039276957512,-0.10289049893618,10.69330978393555,-3.47276544570923,3.10749363899231,0.48695224523544
407,1978378577,-0.11399328708649,-0.35358294844627,-116.50055694580078,-0.86491817235947,1.30016970634460,11.09064292907715,5.24571800231934,3.84328770637512,-0.67569065093994
408,1978386910,-0.10219206660986,-0.35044032335281,-116.49984741210938,-0.16642569005489,-0.09850101917982,8.27048206329346,0.78996860980988,3.92322993278503,0.40870073437691
409,1978395243,-0.14715492725372,-0.35336616635323,-116.49234771728516,1.01445770263672,-1.43347561359406,7.77906274795532,-6.01605367660522,3.18469452857971,1.22010838985443
410,1978403576,-0.15767408907413,-0.35646194219589,-116.49327850341797,-0.02261773496866,0.41611444950104,11.28252983093262,-1.88885772228241,3.17508935928345,0.20955005288124
411,1978411909,-0.10887245088816,-0.35341656208038,-116.50014495849609,-0.83284687995911,1.18539822101593,10.77096462249756,5.22589302062988,3.90788674354553,-0.49457246065140
412,1978420242,-0.10506027936935,-0.34970089793205,-116.49768829345703,0.06521445512772,-0.47368156909943,7.63439369201660,-0.16683831810951,3.99051809310913,0.61545872688293
413,1978428575,-0.15771979093552,-0.35446047782898,-116.49003601074219,0.95069652795792,-1.18510842323303,8.63640308380127,-6.93926906585693,2.96582174301147,1.24677312374115
414,1978436908,-0.14749665558338,-0.35611113905907,-116.49456024169922,-0.16590294241905,0.55926740169525,11.31508350372314,0.59565907716751,3.34849786758423,-0.22111490368843
415,1978445241,-0.10188677906990,-0.35244885087013,-116.50114440917969,-0.93764936923981,1.22559785842896,10.44543361663818,4.84421586990356,3.97922301292419,-0.46611505746841
416,1978453574,-0.11319035291672,-0.35054492950439,-116.49668884277344,0.49455726146698,-1.02688896656036,7.27018260955811,-1.97848212718964,3.77459096908569,0.85490077733994
417,1978461907,-0.15894410014153,-0.35498616099358,-116.49132537841797,0.78761076927185,-0.91276323795319,9.10702896118164,-6.11372137069702,3.00408887863159,0.97116380929947
418,1978470240,-0.14017039537430,-0.35479807853699,-116.49597930908203,-0.46844023466110,1.03178191184998,11.83487892150879,1.62456989288330,3.57002234458923,-0.23726466298103
419,1978478573,-0.09245085716248,-0.34973505139351,-116.50144195556641,-0.68151372671127,0.66905766725540,9.25609683990479,5.09794998168945,4.14612483978271,-0.33117923140526
420,1978486906,-0.12716273963451,-0.35037958621979,-116.49393463134766,0.61059629917145,-1.10247874259949,7.49394226074219,-4.78772306442261,3.46765518188477,1.22164535522461
421,1978495239,-0.16268165409565,-0.35355728864670,-116.49013519287109,0.72907930612564,-0.71196752786636,9.77084445953369,-4.88474988937378,3.15552020072937,0.77977412939072
422,1978503572,-0.12477509677410,-0.35230258107185,-116.49736022949219,-0.86020499467850,1.42043519020081,11.62403297424316,3.91751813888550,3.69838833808899,-0.54585218429565
423,1978511905,-0.09879960119724,-0.34783986210823,-116.49912261962891,-0.37163302302361,0.22166858613491,8.63149547576904,2.49031853675842,4.07532739639282,0.11339423060417
424,1978520238,-0.14061598479748,-0.34963443875313,-116.49182891845703,0.94468367099762,-1.49386680126190,7.33040857315063,-5.63832044601440,3.32803201675415,1.19636392593384
425,1978528571,-0.16568069159985,-0.35333672165871,-116.49073791503906,0.15289308130741,0.19957494735718,11.13880062103271,-3.63254690170288,3.09227848052979,0.45414039492607
426,1978536904,-0.11123859882355,-0.34970787167549,-116.49863433837891,-0.85685855150223,1.25559628009796,10.93710422515869,5.90141820907593,3.98401260375977,-0.62607598304749
427,1978545237,-0.10567575693130,-0.34712621569633,-116.49636077880859,-0.05457061529160,-0.32912227511406,7.77381610870361,0.04374911263585,3.84941005706787,0.59412217140198
428,1978553570,-0.16057170927525,-0.35103112459183,-116.48800659179688,1.02516376972198,-1.33649480342865,8.50180912017822,-7.20829486846924,3.07468175888062,1.32366704940796
429,1978561903,-0.14593312144279,-0.35205039381981,-116.49361419677734,-0.29761773347855,0.74646317958832,11.41702938079834,1.12764108181000,3.41683673858643,-0.35223415493965
430,1978570236,-0.10016202926636,-0.34852555394173,-116.49950408935547,-0.89653337001801,1.16552662849426,10.22864151000977,4.86137676239014,3.97012996673584,-0.38256144523621
431,1978578569,-0.11951897293329,-0.34694284200668,-116.49382019042969,0.67787188291550,-1.27425658702850,7.06255388259888,-2.94416427612305,3.72682023048401,1.00343775749207
432,1978586902,-0.16322009265423,-0.35180473327637,-116.49108886718750,0.65054720640182,-0.64520102739334,9.74199008941650,-5.86810541152954,2.96190190315247,0.64829629659653
433,1978595235,-0.12869662046432,-0.35014545917511,-116.49890136718750,-0.71887844800949,1.30037510395050,11.78416728973389,3.51194190979004,3.73972916603088,-0.61478006839752
434,1978603568,-0.09166378527880,-0.34582737088203,-116.50219726562500,-0.40044105052948,0.22213687002659,8.46097373962402,3.81595754623413,4.06428766250610,-0.07280846685171
435,1978611901,-0.14343872666359,-0.34842133522034,-116.49395751953125,0.88761973381042,-1.37531697750092,7.76974391937256,-6.83255910873413,3.22498655319214,1.31424093246460
436,1978620234,-0.15636366605759,-0.35078492760658,-116.49468231201172,0.19450405240059,0.05523178726435,10.92145061492920,-2.17829871177673,3.26212644577026,0.23329445719719
437,1978628567,-0.10324753075838,-0.34806653857231,-116.50276947021484,-0.99545305967331,1.44013798236847,10.88532447814941,5.74286508560181,3.86777472496033,-0.64421081542969
438,1978636900,-0.10912811011076,-0.34648129343987,-116.49922180175781,0.27521550655365,-0.72178226709366,7.50200033187866,-1.32864880561829,3.73540067672729,0.74714154005051
439,1978645233,-0.15851730108261,-0.35052517056465,-116.49356079101562,0.93433326482773,-1.20614814758301,8.66349697113037,-6.54877853393555,3.05198740959167,1.00192630290985
440,1978653566,-0.14004299044609,-0.35214632749557,-116.49900054931641,-0.57085466384888,1.16382455825806,11.94510459899902,1.58641755580902,3.35326170921326,-0.33327960968018
441,1978661899,-0.09376119822264,-0.34789869189262,-116.50376892089844,-0.57979989051819,0.60824704170227,9.23408889770508,4.92671871185303,4.04861116409302,-0.24232348799706
442,1978670232,-0.13280171155930,-0.34989294409752,-116.49706268310547,0.77740639448166,-1.34807217121124,7.33614635467529,-5.30733346939087,3.30574727058411,1.12674450874329
443,1978678565,-0.16525694727898,-0.35399216413498,-116.49459075927734,0.42130130529404,-0.24172426760197,10.60959720611572,-4.51862001419067,3.04507136344910,0.62004381418228
444,1978686898,-0.11095236986876,-0.35087561607361,-116.50270080566406,-0.90752631425858,1.41368198394775,11.14171695709229,5.88412761688232,3.92322993278503,-0.65343201160431
445,1978695231,-0.10531274229288,-0.34799602627754,-116.50043487548828,-0.02872991189361,-0.32250085473061,7.87445068359375,0.05411006882787,3.88282346725464,0.59910410642624
446,1978703564,-0.15785138309002,-0.35246431827545,-116.49226379394531,1.04495441913605,-1.41720592975616,8.33659744262695,-6.92594957351685,3.00649690628052,1.30289387702942
447,1978711897,-0.14294417202473,-0.35377785563469,-116.49668121337891,-0.48660928010941,0.99539482593536,11.73325252532959,1.16114437580109,3.38317918777466,-0.20554141700268
448,1978720230,-0.09743790328503,-0.34928086400032,-116.50254058837891,-0.75229585170746,0.91249680519104,9.72760581970215,4.82960224151611,4.08696937561035,-0.38024333119392
449,1978728563,-0.12887497246265,-0.35021331906319,-116.49588775634766,0.83369290828705,-1.46113336086273,7.03378438949585,-4.39275121688843,3.42400813102722,1.12085318565369
450,1978736896,-0.16569167375565,-0.35460522770882,-116.49330139160156,0.38846725225449,-0.22635662555695,10.54409503936768,-5.04294347763062,3.01776647567749,0.62870138883591
451,1978745229,-0.11444558203220,-0.35223978757858,-116.50167846679688,-0.86223584413528,1.42318487167358,11.34953689575195,5.51917648315430,3.82366752624512,-0.67453813552856
452,1978753562,-0.10225528478622,-0.34847170114517,-116.50126647949219,-0.03787018358707,-0.32810541987419,7.74027252197266,0.83750867843628,3.99802350997925,0.37120145559311
453,1978761895,-0.16180270910263,-0.35355484485626,-116.49297332763672,0.96477913856506,-1.30997204780579,8.56458473205566,-7.76642894744873,2.92583727836609,1.31979906558990
454,1978770228,-0.14403429627419,-0.35410824418068,-116.49882507324219,-0.38441544771194,0.86727625131607,11.58316993713379,1.50288939476013,3.48263907432556,-0.38174170255661
455,1978778561,-0.09734260290861,-0.35023045539856,-116.50404357910156,-0.79041516780853,0.98227328062057,9.65907859802246,4.97251701354980,4.00478506088257,-0.29624143242836
456,1978786894,-0.13648238778114,-0.35121199488640,-116.49554443359375,0.89544838666916,-1.52315688133240,7.22866249084473,-5.31606769561768,3.42682600021362,1.34103322029114
457,1978795227,-0.16233438253403,-0.35556277632713,-116.49476623535156,0.37408304214478,-0.25209999084473,10.47122573852539,-3.72719168663025,3.01574349403381,0.41945871710777
458,1978803560,-0.11324132233858,-0.35331735014915,-116.50207519531250,-1.02056634426117,1.59404838085175,11.45906066894531,5.25967788696289,3.81772446632385,-0.55520135164261
459,1978811893,-0.10572283715010,-0.35066953301430,-116.50003814697266,0.24424396455288,-0.72410053014755,7.37141895294189,0.27768394351006,3.85568499565125,0.57170969247818
460,1978820226,-0.16044570505619,-0.35557374358177,-116.49323272705078,0.88133442401886,-1.16872155666351,8.70630455017090,-7.18757390975952,2.95544791221619,1.13747704029083
461,1978828559,-0.13996745646000,-0.35561078786850,-116.49823760986328,-0.55149263143539,1.16547358036041,11.96595573425293,1.82867681980133,3.53627562522888,-0.27989956736565
462,1978836892,-0.09100235998631,-0.35112425684929,-116.50326538085938,-0.55948364734650,0.57305759191513,8.90653038024902,5.24453926086426,4.08475303649902,-0.27997636795044
463,1978845225,-0.14111578464508,-0.35368987917900,-116.49412536621094,0.86820948123932,-1.41879940032959,7.46999502182007,-6.63125705718994,3.22831606864929,1.42494571208954
464,1978853558,-0.16040287911892,-0.35679301619530,-116.49475097656250,0.28974583745003,-0.03859323635697,10.91829681396484,-2.94093680381775,3.17393708229065,0.24359138309956
465,1978861891,-0.10117787867785,-0.35316333174706,-116.50395965576172,-1.02928543090820,1.48791444301605,10.81896495819092,6.47550964355469,3.97602081298828,-0.77735358476639
466,1978870224,-0.11543101072311,-0.35165038704872,-116.49922180175781,0.35725131630898,-0.81322640180588,7.45793056488037,-2.33395624160767,3.72761368751526,0.89127302169800
467,1978878557,-0.16420947015285,-0.35579124093056,-116.49335479736328,0.92765116691589,-1.18715357780457,9.03743267059326,-6.47518873214722,3.03748941421509,1.02472293376923
468,1978886890,-0.13024060428143,-0.35592722892761,-116.50021362304688,-0.86272388696671,1.49882137775421,11.93231391906738,3.44506359100342,3.53204965591431,-0.50161641836166
469,1978895223,-0.09907581657171,-0.35082328319550,-116.50169372558594,-0.36434853076935,0.22191759943962,8.56522655487061,3.11381983757019,4.15106821060181,0.15330119431019
470,1978903556,-0.14849023520947,-0.35303822159767,-116.49397277832031,1.02906680107117,-1.61816966533661,7.49049425125122,-6.55085420608521,3.27877569198608,1.24743890762329
471,1978911889,-0.15808729827404,-0.35655823349953,-116.49561309814453,-0.18380841612816,0.62035799026489,11.65993976593018,-1.77888309955597,3.11650967597961,0.12853223085403
472,1978920222,-0.09917823970318,-0.35188281536102,-116.50368499755859,-0.81344783306122,1.11909270286560,10.19685173034668,6.43726873397827,4.10826826095581,-0.64526104927063
473,1978928555,-0.12306329607964,-0.35167244076729,-116.49760437011719,0.60475009679794,-1.19884026050568,7.12938642501831,-3.48692965507507,3.56288886070251,1.05561387538910
474,1978936888,-0.16959381103516,-0.35581001639366,-116.49221038818359,0.60417896509171,-0.59302031993866,10.10949707031250,-6.20608520507812,3.04794001579285,0.96870470046997
475,1978945221,-0.11583882570267,-0.35327079892159,-116.50110626220703,-0.86664062738419,1.44567060470581,11.36548233032227,5.81940126419067,3.84572148323059,-0.74584817886353
476,1978953554,-0.10264495760202,-0.35063913464546,-116.50031280517578,-0.07844448834658,-0.20809026062489,7.95375394821167,0.95602566003799,3.86152529716492,0.41761448979378
477,1978961887,-0.16009157896042,-0.35469105839729,-116.49293518066406,1.06333506107330,-1.46149039268494,8.39057064056396,-7.51284694671631,3.05075788497925,1.20858204364777
478,1978970220,-0.13768191635609,-0.35604462027550,-116.49882507324219,-0.54166489839554,1.05120158195496,11.73293590545654,2.05866718292236,3.38525390625000,-0.38673651218414
479,1978978553,-0.09474685788155,-0.35186305642128,-116.50375366210938,-0.67670172452927,0.83435672521591,9.38308715820312,4.52349996566772,4.04038906097412,-0.27098581194878
480,1978986886,-0.14012756943703,-0.35391297936440,-116.49543762207031,1.01788187026978,-1.65939092636108,7.19448041915894,-6.06597661972046,3.29908823966980,1.31969666481018
481,1978995219,-0.15846198797226,-0.35738337039948,-116.49665069580078,0.06649969518185,0.25464126467705,11.14237022399902,-2.82726120948792,3.12024950981140,0.17668701708317
482,1979003552,-0.10269137471914,-0.35354506969452,-116.50420379638672,-0.92696434259415,1.45006561279297,10.81411743164062,6.06099414825439,4.00870466232300,-0.58296728134155
483,1979011885,-0.11713291704655,-0.35225930809975,-116.50007629394531,0.59954303503036,-1.20099627971649,6.98522329330444,-2.35542130470276,3.69075560569763,0.81914329528809
484,1979020218,-0.16723017394543,-0.35785070061684,-116.49483489990234,0.62600207328796,-0.63590919971466,9.87414741516113,-6.63420200347900,2.87442946434021,0.95046746730804
485,1979028551,-0.11896049976349,-0.35536271333694,-116.50274658203125,-0.87790149450302,1.50922846794128,11.62756156921387,5.16190862655640,3.83934330940247,-0.62428289651871
486,1979036884,-0.09968515485525,-0.35174825787544,-116.50271606445312,-0.03888785094023,-0.26088136434555,7.74212741851807,1.68649256229401,3.97899246215820,0.32517275214195
487,1979045217,-0.16320894658566,-0.35685133934021,-116.49464416503906,0.93662184476852,-1.32546079158783,8.58234119415283,-8.24344253540039,2.92360925674438,1.29134178161621
488,1979053550,-0.13750433921814,-0.35766854882240,-116.50173187255859,-0.54059100151062,1.08754658699036,11.77654361724854,2.45292162895203,3.45144176483154,-0.53079104423523
489,1979061883,-0.09319953620434,-0.35280948877335,-116.50563812255859,-0.59224510192871,0.62691289186478,8.98123741149902,4.68978738784790,4.12204790115356,-0.13761247694492
490,1979070216,-0.14948509633541,-0.35566824674606,-116.49658203125000,1.02010524272919,-1.63367295265198,7.59296131134033,-7.37350511550903,3.20083189010620,1.40647757053375
491,1979078549,-0.15359480679035,-0.35827007889748,-116.49903106689453,-0.06598861515522,0.40163478255272,11.32145786285400,-1.12153208255768,3.22700953483582,0.03737116977572
492,1979086882,-0.09682199358940,-0.35423561930656,-116.50618743896484,-0.95943427085876,1.38011503219604,10.32259368896484,6.18162488937378,4.03225708007812,-0.53584986925125
493,1979095215,-0.13067021965981,-0.35467743873596,-116.49896240234375,0.82969605922699,-1.46088075637817,7.07703542709351,-4.68229532241821,3.48240923881531,1.18949949741364
494,1979103548,-0.16245038807392,-0.35894736647606,-116.49797821044922,0.40132656693459,-0.35545480251312,10.42027378082275,-4.43888330459595,3.03282809257507,0.43692764639854
495,1979111881,-0.10887701064348,-0.35620480775833,-116.50722503662109,-1.06659734249115,1.68343126773834,11.42394638061523,5.79790973663330,3.87056708335876,-0.78311681747437
496,1979120214,-0.11321146786213,-0.35370385646820,-116.50321960449219,0.43721508979797,-1.00321924686432,7.14411306381226,-1.14478969573975,3.84528517723083,0.80118757486343
497,1979128547,-0.16576424241066,-0.35745596885681,-116.49827575683594,0.77044737339020,-1.00999402999878,9.30443286895752,-6.92856216430664,3.08638763427734,0.91537606716156
498,1979136880,-0.12564916908741,-0.35619199275970,-116.50565338134766,-0.92391675710678,1.61445665359497,12.02922344207764,4.18175411224365,3.70010423660278,-0.56475543975830
499,1979145213,-0.09973496198654,-0.35259696841240,-116.50584411621094,-0.04242499172688,-0.27684170007706,7.77831268310547,2.48452949523926,3.96900296211243,0.30606454610825
500,1979153546,-0.16078037023544,-0.35671448707581,-116.49774169921875,0.96336603164673,-1.42786967754364,8.30336952209473,-7.94567680358887,3.04981040954590,1.29300665855408
501,1979161879,-0.14100222289562,-0.35707998275757,-116.50285339355469,-0.55435204505920,1.19921267032623,12.03283500671387,1.74509775638580,3.49567699432373,-0.28901821374893
502,1979170212,-0.09125795960426,-0.35222002863884,-116.50726318359375,-0.49514874815941,0.49380800127983,8.77013015747070,5.33931255340576,4.12991094589233,-0.20677091181278
503,1979178545,-0.14989750087261,-0.35597524046898,-116.49839782714844,0.97521096467972,-1.56638932228088,7.58790159225464,-7.65628719329834,3.08549070358276,1.39144194126129
504,1979186878,-0.15376791357994,-0.35852432250977,-116.50076293945312,-0.13059823215008,0.53677225112915,11.57323169708252,-1.09240877628326,3.24084138870239,0.03678204491735
505,1979195211,-0.08963828533888,-0.35319572687149,-116.50878143310547,-0.82785177230835,1.14771616458893,9.74358081817627,7.06525087356567,4.17993545532227,-0.63206958770752
506,1979203544,-0.13522326946259,-0.35421520471573,-116.49945068359375,0.82446402311325,-1.44939231872559,7.26689767837524,-6.09002828598022,3.42198514938354,1.44177424907684
507,1979211877,-0.16083994507790,-0.35874548554420,-116.49842834472656,0.27687245607376,-0.12921170890331,10.83577537536621,-3.69947671890259,2.99356126785278,0.44502168893814
508,1979220210,-0.09517974406481,-0.35406252741814,-116.50765991210938,-1.04952454566956,1.60717797279358,10.74919223785400,7.24641942977905,4.11095666885376,-0.78672838211060
509,1979228543,-0.12322899699211,-0.35366451740265,-116.49993133544922,0.60618430376053,-1.16550278663635,7.22621440887451,-3.98556232452393,3.58294534683228,1.25140917301178
510,1979236876,-0.16538034379482,-0.35819706320763,-116.49607849121094,0.65850746631622,-0.72080475091934,10.00042533874512,-5.68178749084473,3.00121951103210,0.78405171632767
511,1979245209,-0.10687381774187,-0.35459175705910,-116.50548553466797,-1.08788669109344,1.77923345565796,11.47395610809326,6.38921451568604,3.97292137145996,-0.80470955371857
512,1979253542,-0.11212721467018,-0.35328882932663,-116.50140380859375,0.33250001072884,-0.77201324701309,7.39487314224243,-1.25423943996429,3.70194840431213,0.81304705142975
513,1979261875,-0.16531385481358,-0.35790848731995,-116.49570465087891,0.88583219051361,-1.17438030242920,9.15300750732422,-7.00404739379883,2.98090815544128,1.00802278518677
514,1979270208,-0.11920445412397,-0.35606679320335,-116.50424194335938,-1.01805520057678,1.74253666400909,11.95828056335449,4.89961910247803,3.77041554450989,-0.70371270179749
515,1979278541,-0.10404513031244,-0.35240933299065,-116.50254058837891,0.04586371406913,-0.32340434193611,7.83150959014893,1.19618475437164,3.97640466690063,0.53651571273804
516,1979286874,-0.16255842149258,-0.35701736807823,-116.49544525146484,1.03411483764648,-1.51221501827240,8.40316390991211,-7.64417123794556,2.99130678176880,1.16931533813477
517,1979295207,-0.13294678926468,-0.35671359300613,-116.50121307373047,-0.84263402223587,1.51458835601807,12.16491603851318,2.92524814605713,3.57651591300964,-0.36693674325943
518,1979303540,-0.09772269427776,-0.35258480906487,-116.50292205810547,-0.25162443518639,0.13078534603119,8.35883045196533,3.59787774085999,4.04182386398315,0.11682651937008
519,1979311873,-0.15677048265934,-0.35535082221031,-116.49516296386719,1.08230972290039,-1.68975079059601,7.78763151168823,-7.70549154281616,3.20462226867676,1.25514864921570
520,1979320206,-0.14449773728848,-0.35728719830513,-116.49988555908203,-0.57899874448776,1.17211341857910,12.06655693054199,0.84293895959854,3.31404685974121,-0.24637052416801
521,1979328539,-0.09416711330414,-0.35220804810524,-116.50406646728516,-0.49857896566391,0.56711149215698,8.99690151214600,5.41267204284668,4.14889144897461,-0.17472749948502
522,1979336872,-0.14861206710339,-0.35528877377510,-116.49524688720703,1.05894625186920,-1.72762107849121,7.37767362594604,-7.15376186370850,3.17498731613159,1.37789225578308
523,1979345205,-0.15299938619137,-0.35792642831802,-116.49817657470703,-0.28709751367569,0.77386957406998,11.81578445434570,-1.15477943420410,3.22255277633667,-0.02939233556390
524,1979353538,-0.09199119359255,-0.35357272624969,-116.50453186035156,-0.71329593658447,0.96614569425583,9.60943889617920,6.69002962112427,4.06933403015137,-0.43796506524086
525,1979361871,-0.14019018411636,-0.35528683662415,-116.49607849121094,0.91885966062546,-1.63761162757874,7.17125654220581,-6.40249538421631,3.33013224601746,1.33112049102783
526,1979370204,-0.15959519147873,-0.35879582166672,-116.49540710449219,-0.00227624457330,0.33141592144966,11.37365055084229,-2.95464062690735,3.12565398216248,0.40101650357246
527,1979378537,-0.09425111114979,-0.35372161865234,-116.50408172607422,-0.87885403633118,1.29126679897308,10.18126106262207,7.20917749404907,4.14860963821411,-0.71503412723541
528,1979386870,-0.13163268566132,-0.35615053772926,-116.49691009521484,0.76141375303268,-1.41685187816620,7.09680700302124,-5.10767078399658,3.25390458106995,1.18312156200409
529,1979395203,-0.16451840102673,-0.36091908812523,-116.49490356445312,0.27565640211105,-0.12861739099026,10.85310459136963,-4.56995058059692,2.96407914161682,0.56484508514404
530,1979403536,-0.09752766788006,-0.35583856701851,-116.50456237792969,-0.96112936735153,1.54075050354004,10.72214603424072,7.40453624725342,4.15859937667847,-0.83577954769135
531,1979411869,-0.12209939956665,-0.35598528385162,-116.49806976318359,0.60788726806641,-1.15997505187988,7.14855289459229,-3.56805038452148,3.51862764358521,1.10515189170837
532,1979420202,-0.16580246388912,-0.36082303524017,-116.49394226074219,0.55047386884689,-0.57834374904633,10.25263500213623,-5.86849021911621,2.96361780166626,0.81591576337814
533,1979428535,-0.10210122168064,-0.35656958818436,-116.50357818603516,-1.01603460311890,1.66003310680389,11.22828769683838,7.01177024841309,4.05132722854614,-0.82888960838318
534,1979436868,-0.11532778292894,-0.35548713803291,-116.49848175048828,0.39627015590668,-0.87178021669388,7.32817983627319,-2.20952224731445,3.67505335807800,0.93253749608994
535,1979445201,-0.16767713427544,-0.36056396365166,-116.49417877197266,0.71674662828445,-0.96667349338531,9.66174030303955,-6.90468931198120,2.92532491683960,0.84270834922791
536,1979453534,-0.10988160967827,-0.35733535885811,-116.50325012207031,-1.01916956901550,1.71789169311523,11.53151988983154,6.30322742462158,3.93742012977600,-0.76674932241440
537,1979461867,-0.11000438779593,-0.35484582185745,-116.50041961669922,0.23343569040298,-0.62267577648163,7.53066778182983,-0.63926726579666,3.83565449714661,0.66307568550110
538,1979470200,-0.16721996665001,-0.35985875129700,-116.49372863769531,0.90993601083755,-1.29527080059052,9.08673667907715,-7.48638963699341,2.94240999221802,1.12259531021118
539,1979478533,-0.11793524026871,-0.35758608579636,-116.50245666503906,-0.98467940092087,1.72832906246185,11.80299663543701,5.28124523162842,3.81462526321411,-0.72768759727478
540,1979486866,-0.10571780800819,-0.35444450378418,-116.50055694580078,0.04636005684733,-0.34654343128204,7.82275009155273,0.84068477153778,3.92299890518188,0.55042421817780
541,1979495199,-0.16543759405613,-0.35870829224586,-116.49388885498047,1.04927349090576,-1.53380584716797,8.56827831268311,-7.78551054000854,3.02393960952759,1.12256944179535
542,1979503532,-0.12413535267115,-0.35837319493294,-116.50249481201172,-0.92890959978104,1.64609205722809,12.06902885437012,4.32309389114380,3.58909249305725,-0.71037244796753
543,1979511865,-0.10014916211367,-0.35455468297005,-116.50354766845703,-0.10940682142973,-0.04756680130959,8.11339473724365,2.25264406204224,3.99571824073792,0.19825419783592
544,1979520198,-0.15974979102612,-0.35987100005150,-116.49514770507812,1.12835490703583,-1.72687494754791,8.11290740966797,-7.77172994613647,2.90578103065491,1.32925057411194
545,1979528531,-0.13034577667713,-0.35994905233383,-116.50256347656250,-0.83094173669815,1.53213810920715,12.17515659332275,2.89825105667114,3.52838683128357,-0.56823903322220
546,1979536864,-0.09550952911377,-0.35586136579514,-116.50487518310547,-0.25782009959221,0.22682979702950,8.46219062805176,3.55100417137146,4.03770017623901,0.04641299694777
547,1979545197,-0.15454678237438,-0.35995712876320,-116.49713134765625,1.14280414581299,-1.81146204471588,7.73287248611450,-7.70451831817627,3.04373955726624,1.25545597076416
548,1979553530,-0.13585802912712,-0.36152577400208,-116.50228881835938,-0.71964025497437,1.39838314056396,12.17984485626221,1.61249279975891,3.35869193077087,-0.29900774359703
549,1979561863,-0.09185931831598,-0.35630527138710,-116.50517272949219,-0.39712184667587,0.48156026005745,8.78722667694092,4.65349197387695,4.16651391983032,-0.01297361031175
550,1979570196,-0.14969089627266,-0.35985779762268,-116.49682617187500,1.16397559642792,-1.84192037582397,7.47693872451782,-7.56002807617188,3.11691904067993,1.32161748409271
551,1979578529,-0.14032545685768,-0.36157795786858,-116.50081634521484,-0.59380733966827,1.21139395236969,12.09361743927002,0.49466216564178,3.33192563056946,-0.15200769901276
552,1979586862,-0.08903283625841,-0.35680058598518,-116.50573730468750,-0.53956282138824,0.68350923061371,9.13277435302734,5.52509307861328,4.12148380279541,-0.26663136482239
553,1979595195,-0.14389051496983,-0.36056557297707,-116.49680328369141,1.10427212715149,-1.79960405826569,7.29022884368896,-7.20274877548218,3.08483791351318,1.39588642120361
554,1979603528,-0.14591060578823,-0.36251950263977,-116.49998474121094,-0.42974221706390,0.97954779863358,11.93775463104248,-0.87007731199265,3.31122946739197,-0.06271646171808
555,1979611861,-0.08747701346874,-0.35781073570251,-116.50611877441406,-0.63960248231888,0.86432957649231,9.42438888549805,6.38186359405518,4.10465574264526,-0.40927705168724
556,1979620194,-0.13961666822433,-0.36070793867111,-116.49699401855469,1.04494941234589,-1.78572475910187,7.13615894317627,-6.87682056427002,3.19622111320496,1.41487920284271
557,1979628527,-0.14923793077469,-0.36357641220093,-116.49872589111328,-0.28276246786118,0.74734425544739,11.74924373626709,-1.78102147579193,3.19347977638245,0.11859389394522
558,1979636860,-0.08707515895367,-0.35838204622269,-116.50508880615234,-0.71405261754990,1.03704571723938,9.68131923675537,6.82837200164795,4.17140722274780,-0.43955317139626
559,1979645193,-0.13566535711288,-0.36100319027901,-116.49673461914062,0.99250185489655,-1.72383105754852,7.11446809768677,-6.44949865341187,3.22173309326172,1.32499885559082
560,1979653526,-0.15358535945415,-0.36423459649086,-116.49806976318359,-0.09068527072668,0.47524100542068,11.55079841613770,-2.77751803398132,3.15831232070923,0.16075493395329
561,1979661859,-0.08880625665188,-0.35886749625206,-116.50679016113281,-0.79520797729492,1.16190874576569,9.96588134765625,7.14178609848022,4.18472528457642,-0.72361493110657
562,1979670192,-0.13277113437653,-0.36018922924995,-116.49785614013672,0.91160655021667,-1.63123095035553,7.06294012069702,-5.89648628234863,3.38453674316406,1.39318382740021
563,1979678525,-0.15758715569973,-0.36377581954002,-116.49707031250000,0.05574222654104,0.22612713277340,11.30398082733154,-3.60285997390747,3.10785198211670,0.41620573401451
564,1979686858,-0.08996127545834,-0.35916918516159,-116.50537872314453,-0.88310015201569,1.32698512077332,10.29959869384766,7.48340368270874,4.10007047653198,-0.67630541324615
565,1979695191,-0.12821401655674,-0.36056146025658,-116.49781036376953,0.81984186172485,-1.50653767585754,7.04192543029785,-5.21069097518921,3.37026953697205,1.23201906681061
566,1979703524,-0.16065159440041,-0.36419633030891,-116.49681091308594,0.21696168184280,-0.03579830378294,10.96892070770264,-4.51946496963501,3.10990118980408,0.43928411602974
567,1979711857,-0.09257305413485,-0.35896348953247,-116.50610351562500,-0.94651627540588,1.47366678714752,10.57603836059570,7.53929424285889,4.16756439208984,-0.78742003440857
568,1979720190,-0.12364655733109,-0.35947468876839,-116.49870300292969,0.72289085388184,-1.32622361183167,7.10582494735718,-4.35025787353516,3.48246026039124,1.20935058593750
569,1979728523,-0.16217614710331,-0.36400839686394,-116.49674224853516,0.37414348125458,-0.30288782715797,10.61445331573486,-5.24762725830078,2.99392008781433,0.56092613935471
570,1979736856,-0.09533299505711,-0.36011484265327,-116.50622558593750,-0.98095774650574,1.59647989273071,10.87307453155518,7.38683748245239,4.01574850082397,-0.81426376104355
571,1979745189,-0.11745215952396,-0.36004838347435,-116.50048828125000,0.57242053747177,-1.15241086483002,7.15526533126831,-3.27507448196411,3.54516363143921,1.01547634601593
572,1979753522,-0.16316194832325,-0.36465734243393,-116.49639129638672,0.53097093105316,-0.59669840335846,10.20556259155273,-6.10959672927856,2.99110198020935,0.81268841028214
573,1979761855,-0.09884531050920,-0.36059555411339,-116.50587463378906,-1.01160240173340,1.69619596004486,11.22957229614258,7.08630609512329,4.02781248092651,-0.81633841991425
574,1979770188,-0.11284710466862,-0.35985949635506,-116.50114440917969,0.43288594484329,-0.92142671346664,7.27152442932129,-2.30414152145386,3.63348174095154,0.88904452323914
575,1979778521,-0.16408503055573,-0.36397472023964,-116.49573516845703,0.71511936187744,-0.91139787435532,9.80166530609131,-6.76959943771362,3.04348349571228,0.97321295738220
576,1979786854,-0.10421115159988,-0.36036249995232,-116.50587463378906,-1.03935921192169,1.71445918083191,11.51244831085205,6.55145645141602,3.98175907135010,-0.89215666055679
577,1979795187,-0.10835827142000,-0.35842627286911,-116.50287628173828,0.28584501147270,-0.70532268285751,7.46053123474121,-1.12068665027618,3.76905775070190,0.68674325942993
578,1979803520,-0.16487829387188,-0.36337873339653,-116.49682617187500,0.88629579544067,-1.19053947925568,9.30268573760986,-7.40427017211914,2.95052981376648,1.04605996608734
579,1979811853,-0.11171694844961,-0.36075928807259,-116.50633239746094,-0.99025154113770,1.73140871524811,11.71682071685791,5.74675798416138,3.85386633872986,-0.81344407796860
580,1979820186,-0.10476257652044,-0.35791122913361,-116.50466918945312,0.11491377651691,-0.47789326310158,7.72785425186157,0.20937073230743,3.88665223121643,0.52219730615616
581,1979828519,-0.16306251287460,-0.36266899108887,-116.49748229980469,0.97664338350296,-1.43393385410309,8.82639598846436,-7.61630296707153,2.96331071853638,1.18624639511108
582,1979836852,-0.11819460988045,-0.36122751235962,-116.50558471679688,-0.97508448362350,1.68873858451843,11.95326137542725,4.75056982040405,3.72162032127380,-0.64923119544983
583,1979845185,-0.09947440773249,-0.35783454775810,-116.50598144531250,-0.04006405547261,-0.21788589656353,7.96507644653320,1.62158608436584,3.94600129127502,0.27934888005257
584,1979853518,-0.16041912138462,-0.36278361082077,-116.49830627441406,1.08783209323883,-1.62349915504456,8.34571456909180,-7.93358659744263,2.95073413848877,1.24416017532349
585,1979861851,-0.12557271122932,-0.36258745193481,-116.50528717041016,-0.91824203729630,1.58457219600677,12.10593891143799,3.55102968215942,3.56319618225098,-0.51298904418945
586,1979870184,-0.09675919264555,-0.35882663726807,-116.50646209716797,-0.20026241242886,0.08402311056852,8.27813720703125,2.82960486412048,3.99792098999023,0.18129755556583
587,1979878517,-0.15709270536900,-0.36284661293030,-116.49874114990234,1.14341747760773,-1.76395869255066,7.90533638000488,-7.86079072952271,3.05344748497009,1.25714671611786
588,1979886850,-0.13436296582222,-0.36343047022820,-116.50477600097656,-0.78675103187561,1.49432909488678,12.20798301696777,2.09739565849304,3.47733712196350,-0.40443590283394
589,1979895183,-0.09457895159721,-0.35982942581177,-116.50685119628906,-0.37783303856850,0.35303214192390,8.65031337738037,4.14761066436768,3.96915626525879,0.08240099251270
590,1979903516,-0.15321975946426,-0.36418023705482,-116.49824523925781,1.14068305492401,-1.82242166996002,7.56857776641846,-7.65715789794922,3.02227473258972,1.35350728034973
591,1979911849,-0.14163942635059,-0.36635366082191,-116.50311279296875,-0.63234311342239,1.26871442794800,12.13745498657227,0.75964134931564,3.27946734428406,-0.25851163268089
592,1979920182,-0.09275572746992,-0.36111316084862,-116.50738525390625,-0.48567661643028,0.59193491935730,9.00035095214844,5.23749637603760,4.17650318145752,-0.18922515213490
593,1979928515,-0.14877746999264,-0.36513200402260,-116.49908447265625,1.11200451850891,-1.81178104877472,7.31904888153076,-7.34271907806396,3.05193662643433,1.32348775863647
594,1979936848,-0.14828456938267,-0.36746966838837,-116.50271606445312,-0.44694229960442,1.01434087753296,11.98032474517822,-0.56944292783737,3.26686525344849,-0.11504634469748
595,1979945181,-0.09231176227331,-0.36201480031013,-116.50786590576172,-0.63102620840073,0.83029365539551,9.38015651702881,6.08804321289062,4.19440841674805,-0.28935122489929
596,1979953514,-0.14415228366852,-0.36475053429604,-116.49916076660156,1.06144976615906,-1.77785098552704,7.17354488372803,-6.84149980545044,3.21481752395630,1.36531579494476
597,1979961847,-0.15368853509426,-0.36792817711830,-116.50109100341797,-0.26258689165115,0.73695826530457,11.76263713836670,-1.77213382720947,3.15731310844421,0.09200634062290
598,1979970180,-0.09162288159132,-0.36235684156418,-116.50804138183594,-0.74140226840973,1.05126500129700,9.76401424407959,6.81740903854370,4.21571969985962,-0.51232320070267
599,1979978513,-0.13834007084370,-0.36502140760422,-116.50028228759766,0.97217369079590,-1.70190048217773,7.05635213851929,-6.22568035125732,3.21694326400757,1.25573790073395
600,1979986846,-0.15804558992386,-0.36919394135475,-116.50180053710938,-0.07772861421108,0.43549630045891,11.51753044128418,-2.99244737625122,3.04445695877075,0.13921336829662
601,1979995179,-0.09259353578091,-0.36311122775078,-116.51044464111328,-0.84154736995697,1.23431468009949,10.09718799591064,7.22265005111694,4.27020025253296,-0.71247279644012
602,1980003512,-0.13290993869305,-0.36499786376953,-116.50245666503906,0.87755900621414,-1.58573532104492,6.98666095733643,-5.45853376388550,3.31758117675781,1.28222286701202
603,1980011845,-0.16047008335590,-0.36869722604752,-116.50200653076172,0.08704655617476,0.16420067846775,11.19336509704590,-3.93377017974854,3.09304666519165,0.37821981310844
604,1980020178,-0.09230208396912,-0.36316856741905,-116.51078796386719,-0.89027082920074,1.37376618385315,10.36040496826172,7.54772090911865,4.21174860000610,-0.73099195957184
605,1980028511,-0.12842619419098,-0.36423143744469,-116.50296020507812,0.80147242546082,-1.46042716503143,7.04159688949585,-4.95357608795166,3.40687274932861,1.27064538002014
606,1980036844,-0.16236339509487,-0.36976572871208,-116.50163269042969,0.22642321884632,-0.07591482996941,10.92148208618164,-4.69799661636353,2.88275408744812,0.47645041346550
607,1980045177,-0.09349960833788,-0.36513191461563,-116.51043701171875,-0.94734054803848,1.49625217914581,10.61509323120117,7.63058233261108,4.09533214569092,-0.73644763231277
608,1980053510,-0.12402491271496,-0.36609008908272,-116.50323486328125,0.73610371351242,-1.35418653488159,7.08141708374023,-4.28430080413818,3.42933607101440,1.18478643894196
609,1980061843,-0.16298605501652,-0.37128916382790,-116.50029754638672,0.35438972711563,-0.29061347246170,10.66891288757324,-5.29929065704346,2.91213369369507,0.67803448438644
610,1980070176,-0.09450728446245,-0.36642888188362,-116.50930023193359,-0.95948451757431,1.57100105285645,10.81046199798584,7.58616828918457,4.13278007507324,-0.75878334045410
611,1980078509,-0.12110848724842,-0.36675998568535,-116.50261688232422,0.66226840019226,-1.28153777122498,7.08478212356567,-3.81374168395996,3.49562621116638,1.12341475486755
612,1980086842,-0.16359426081181,-0.37153935432434,-116.49929046630859,0.42445182800293,-0.45780438184738,10.47637176513672,-5.72236061096191,2.97122550010681,0.72129678726196
613,1980095175,-0.09384709596634,-0.36666211485863,-116.50887298583984,-1.02980101108551,1.62308096885681,10.94577217102051,7.73734235763550,4.12622261047363,-0.82412523031235
614,1980103508,-0.11839261651039,-0.36623963713646,-116.50238800048828,0.63096582889557,-1.21952438354492,7.14021682739258,-3.56674361228943,3.59547019004822,1.10079729557037
615,1980111841,-0.16098542511463,-0.37111774086952,-116.49919128417969,0.46469968557358,-0.51017415523529,10.40259742736816,-5.73434877395630,2.94970989227295,0.70597958564758
616,1980120174,-0.09190656244755,-0.36651390790939,-116.50912475585938,-1.04611849784851,1.69045603275299,10.99075698852539,7.65535211563110,4.10186386108398,-0.86718273162842
617,1980128507,-0.11631324142218,-0.36608606576920,-116.50326538085938,0.60771167278290,-1.18692815303802,7.15021133422852,-3.55027365684509,3.58645391464233,1.02779674530029
618,1980136840,-0.15995727479458,-0.37057694792747,-116.49955749511719,0.47618758678436,-0.55006957054138,10.35164070129395,-5.86054944992065,3.00641965866089,0.76463609933853
619,1980145173,-0.09091468900442,-0.36595779657364,-116.50823211669922,-1.04892563819885,1.72163271903992,11.00584697723389,7.65263700485229,4.09330844879150,-0.71213978528976
620,1980153506,-0.11558201164007,-0.36632803082466,-116.50163269042969,0.61718094348907,-1.16460418701172,7.14226436614990,-3.58119034767151,3.50010824203491,1.11094057559967
621,1980161839,-0.15906879305840,-0.37031751871109,-116.49830627441406,0.49081397056580,-0.55063271522522,10.32585525512695,-5.84277343750000,3.05841660499573,0.72606110572815
622,1980170172,-0.09038013964891,-0.36566993594170,-116.50681304931641,-1.07400155067444,1.73037099838257,11.06096744537354,7.61124467849731,4.10496282577515,-0.69943511486053
623,1980178505,-0.11652952432632,-0.36638206243515,-116.50117492675781,0.61389970779419,-1.21889424324036,7.14422273635864,-3.76031064987183,3.45149254798889,1.00046634674072
624,1980186838,-0.15919063985348,-0.37079524993896,-116.49791717529297,0.51635462045670,-0.58343452215195,10.28607273101807,-5.74362039566040,3.01543569564819,0.71284419298172
625,1980195171,-0.09078576415777,-0.36616775393486,-116.50853729248047,-1.06610226631165,1.74648451805115,11.06167793273926,7.57648658752441,4.09620332717896,-0.94878971576691
626,1980203504,-0.11741919815540,-0.36650335788727,-116.50214385986328,0.64668518304825,-1.23195493221283,7.14436101913452,-3.81794261932373,3.50389909744263,1.08788776397705
627,1980211837,-0.15885539352894,-0.37028080224991,-116.49925994873047,0.49996909499168,-0.60043555498123,10.28477764129639,-5.59649229049683,3.08326220512390,0.66515040397644
628,1980220170,-0.09108560532331,-0.36623054742813,-116.50860595703125,-1.07420313358307,1.76679730415344,11.07907104492188,7.49941205978394,4.03462600708008,-0.79876714944839
629,1980228503,-0.11872077733278,-0.36664772033691,-116.50140380859375,0.66498202085495,-1.23002219200134,7.16114139556885,-3.93653655052185,3.48630213737488,1.18819308280945
630,1980236836,-0.15927624702454,-0.37210705876350,-116.49865722656250,0.48885992169380,-0.59494400024414,10.31504344940186,-5.49064159393311,2.89005422592163,0.65014046430588
631,1980245169,-0.09077231585979,-0.36789068579674,-116.50846862792969,-1.08184671401978,1.76644206047058,11.02762413024902,7.58726978302002,4.04525613784790,-0.85289007425308
632,1980253502,-0.11895002424717,-0.36884537339211,-116.50141906738281,0.65108180046082,-1.25537407398224,7.12954330444336,-4.00192975997925,3.42979717254639,1.16444861888885
633,1980261835,-0.15858632326126,-0.37367412447929,-116.49841308593750,0.45896965265274,-0.52485066652298,10.36870193481445,-5.38133335113525,2.95775270462036,0.68446362018585
634,1980270168,-0.08946503698826,-0.36951407790184,-116.50834655761719,-1.09351694583893,1.77979648113251,11.02893829345703,7.66132068634033,4.04733085632324,-0.87035894393921
635,1980278501,-0.11881670355797,-0.36957183480263,-116.50145721435547,0.67624199390411,-1.28828573226929,7.08857965469360,-4.14306449890137,3.52733659744263,1.15264070034027
636,1980286834,-0.15727795660496,-0.37414965033531,-116.49877929687500,0.44214153289795,-0.49395889043808,10.33797740936279,-5.23999452590942,2.99658417701721,0.64248192310333
637,1980295167,-0.09011626243591,-0.37084120512009,-116.50872802734375,-1.08030772209167,1.77465164661407,11.05219745635986,7.42692422866821,3.93752264976501,-0.86800235509872
638,1980303500,-0.11873774230480,-0.37138283252716,-116.50178527832031,0.71005111932755,-1.31538879871368,7.10967206954956,-4.05618047714233,3.47869467735291,1.15284550189972
639,1980311833,-0.15694274008274,-0.37566968798637,-116.49929046630859,0.44362038373947,-0.49593338370323,10.38151836395264,-5.20754098892212,3.02299213409424,0.62247711420059
640,1980320166,-0.09083814173937,-0.37152633070946,-116.50895690917969,-1.07248342037201,1.74937176704407,11.04203033447266,7.29754686355591,4.04553794860840,-0.83864843845367
641,1980328499,-0.11931837350130,-0.37114664912224,-116.50178527832031,0.70292031764984,-1.32803237438202,7.10520792007446,-4.03671360015869,3.58066511154175,1.18947386741638
642,1980336832,-0.15748280286789,-0.37583160400391,-116.49972534179688,0.44443038105965,-0.50387883186340,10.33554363250732,-5.20544004440308,2.98444271087646,0.56776511669159
643,1980345165,-0.09204661101103,-0.37205579876900,-116.50788116455078,-1.10470759868622,1.78102517127991,11.09126186370850,7.22111320495605,3.99361753463745,-0.65582680702209
644,1980353498,-0.11954129487276,-0.37142992019653,-116.50036621093750,0.70378112792969,-1.33668887615204,7.09531497955322,-3.91968250274658,3.61931729316711,1.22243940830231
645,1980361831,-0.15882235765457,-0.37560275197029,-116.49811553955078,0.45968157052994,-0.52475064992905,10.29095363616943,-5.33850669860840,3.03661918640137,0.60014164447784
646,1980370164,-0.09416201710701,-0.37148973345757,-116.50800323486328,-1.08119225502014,1.75687968730927,11.16470909118652,7.12516260147095,4.04138851165771,-0.86336618661880
647,1980378497,-0.11931976675987,-0.37062501907349,-116.50170135498047,0.69912099838257,-1.32775032520294,7.05165433883667,-3.63915514945984,3.64165234565735,1.07869219779968
648,1980386830,-0.15848895907402,-0.37475249171257,-116.49887847900391,0.46212664246559,-0.52975678443909,10.27466011047363,-5.32434272766113,3.04870891571045,0.66107785701752
649,1980395163,-0.09565965831280,-0.37057167291641,-116.50857543945312,-1.08729398250580,1.78228628635406,11.20812320709229,6.90575313568115,4.04236268997192,-0.83903288841248
650,1980403496,-0.11822138726711,-0.37006050348282,-116.50306701660156,0.70279961824417,-1.31901383399963,7.05178833007812,-3.33019638061523,3.60540890693665,0.98420137166977
651,1980411829,-0.15962435305119,-0.37442824244499,-116.50054168701172,0.47942018508911,-0.55833208560944,10.19769859313965,-5.59226608276367,3.01277160644531,0.62562769651413
652,1980420162,-0.09823364764452,-0.37100499868393,-116.50943756103516,-1.09226894378662,1.81066048145294,11.28517150878906,6.73359870910645,3.95893645286560,-0.74707764387131
653,1980428495,-0.11816230416298,-0.36954388022423,-116.50380706787109,0.69198721647263,-1.29720342159271,7.02496623992920,-3.01135039329529,3.71198940277100,1.00256693363190
654,1980436828,-0.16042828559875,-0.37416523694992,-116.50055694580078,0.48819497227669,-0.56319588422775,10.17873668670654,-5.69738721847534,2.99048733711243,0.71025705337524
655,1980445161,-0.09855202585459,-0.37111040949821,-116.50916290283203,-1.11640381813049,1.83480000495911,11.37156009674072,6.79427957534790,3.90668392181396,-0.70694023370743
656,1980453494,-0.11752767860889,-0.37001520395279,-116.50354766845703,0.68876892328262,-1.30035686492920,6.96322631835938,-2.89949321746826,3.67630887031555,0.99644500017166
657,1980461827,-0.15994434058666,-0.37495499849319,-116.50052642822266,0.48626902699471,-0.57532697916031,10.17605972290039,-5.71316576004028,2.94399785995483,0.68717867136002
658,1980470160,-0.09922988712788,-0.37099596858025,-116.50914764404297,-1.10277807712555,1.86033272743225,11.41021156311035,6.65199279785156,4.02269077301025,-0.71070545911789
659,1980478493,-0.11601752787828,-0.37047696113586,-116.50278472900391,0.65796071290970,-1.27417111396790,6.95250892639160,-2.63469290733337,3.59926128387451,1.08960402011871
660,1980486826,-0.15987150371075,-0.37597805261612,-116.49863433837891,0.50503051280975,-0.61997383832932,10.10474491119385,-5.88618898391724,2.88398337364197,0.81822109222412
661,1980495159,-0.09987774491310,-0.37249499559402,-116.50644683837891,-1.10824191570282,1.85368275642395,11.48762989044189,6.56854152679443,3.95740008354187,-0.61693173646927
662,1980503492,-0.11181101948023,-0.37209299206734,-116.50183105468750,0.62339729070663,-1.22549712657928,6.98490381240845,-2.05578589439392,3.59354948997498,0.87751811742783
663,1980511825,-0.15931406617165,-0.37724822759628,-116.49805450439453,0.56245201826096,-0.67921292781830,9.95802879333496,-6.32288646697998,2.91728210449219,0.77167999744415
664,1980520158,-0.10239984840155,-0.37375986576080,-116.50674438476562,-1.12014174461365,1.84486675262451,11.68714523315430,6.19741582870483,3.96736359596252,-0.72059255838394
665,1980528491,-0.10750450193882,-0.37137889862061,-116.50248718261719,0.55550658702850,-1.12715947628021,6.99986171722412,-1.23536157608032,3.82156682014465,0.84747254848480
666,1980536824,-0.15924613177776,-0.37694975733757,-116.49784088134766,0.65132176876068,-0.82856851816177,9.73200416564941,-6.83202123641968,2.87573599815369,0.87672412395477
667,1980545157,-0.10509142279625,-0.37400215864182,-116.50598144531250,-1.07482671737671,1.84272670745850,11.83274555206299,5.86606979370117,3.89490056037903,-0.65271472930908
668,1980553490,-0.10215567797422,-0.37173709273338,-116.50325012207031,0.43317595124245,-0.98537653684616,7.06565666198730,-0.27157491445541,3.81649541854858,0.65057593584061
669,1980561823,-0.15931099653244,-0.37707579135895,-116.49694824218750,0.74910211563110,-0.96085619926453,9.41964054107666,-7.47998523712158,2.89487004280090,1.08509600162506
670,1980570156,-0.11009396612644,-0.37447723746300,-116.50524139404297,-1.02630138397217,1.80906200408936,11.99045276641846,5.27258777618408,3.86093616485596,-0.67376959323883
671,1980578489,-0.09623339772224,-0.37160864472389,-116.50366973876953,0.28840801119804,-0.73276865482330,7.25983381271362,1.03993797302246,3.87925004959106,0.51169550418854
672,1980586822,-0.15825089812279,-0.37671574950218,-116.49692535400391,0.83528196811676,-1.15347409248352,9.08403396606445,-8.06378459930420,2.93180537223816,1.13089430332184
673,1980595155,-0.11555907875299,-0.37456896901131,-116.50489044189453,-0.92692959308624,1.64474892616272,12.05733299255371,4.49176359176636,3.79651618003845,-0.63212096691132
674,1980603488,-0.08983824402094,-0.37148156762123,-116.50437927246094,0.06100948154926,-0.39633047580719,7.58102703094482,2.45970940589905,3.91636514663696,0.38229247927666
675,1980611821,-0.15689481794834,-0.37673398852348,-116.49658203125000,0.91851961612701,-1.35620200634003,8.71449184417725,-8.66582107543945,2.90465450286865,1.25886297225952
676,1980620154,-0.11233276128769,-0.37454068660736,-116.50485992431641,-1.09318315982819,1.87690746784210,12.10379123687744,4.71417236328125,3.81273031234741,-0.67061913013458
677,1980628487,-0.11780523508787,-0.37469768524170,-116.49945068359375,0.96844828128815,-1.51310873031616,6.91375923156738,-1.27757394313812,3.51573300361633,0.97646582126617
678,1980636820,-0.12183264642954,-0.37278255820274,-116.50383758544922,-0.93445873260498,1.21037030220032,11.51269721984863,-1.11272072792053,3.77689576148987,-0.20344105362892
679,1980645153,-0.13453871011734,-0.37820649147034,-116.49865722656250,1.19182050228119,-1.77290427684784,7.91180896759033,-2.14658808708191,2.88580203056335,0.94442230463028
680,1980653486,-0.09564311802387,-0.37115913629532,-116.50147247314453,-0.68842351436615,1.86855351924896,10.24455261230469,4.03885173797607,4.39373779296875,-0.01433116476983
681,1980661819,-0.12787353992462,-0.37113443017006,-116.50241851806641,-0.44591310620308,-0.30618005990982,9.82740592956543,-4.49321031570435,3.53983592987061,0.20834618806839
682,1980670152,-0.13983823359013,-0.37662309408188,-116.50072479248047,0.44985309243202,-1.11035645008087,9.29944705963135,-2.06080627441406,2.88736486434937,0.52352941036224
683,1980678485,-0.13166384398937,-0.37903773784637,-116.49823760986328,0.39067101478577,-0.34005635976791,9.20911026000977,0.35665261745453,3.24586153030396,0.61466479301453
