sep=,
DeviceTag:,Right Foot
FirmwareVersion:,2.4.0
AppVersion:,2022.0.0
StartTime: ,2023-06-27_13:37:39_000 CEST
© Xsens Technologies B. V. 2005-2023

PacketCounter,SampleTimeFine,Euler_X,Euler_Y,Euler_Z,Acc_X,Acc_Y,Acc_Z,Gyr_X,Gyr_Y,Gyr_Z
0,1985394963,-0.11907905340195,-0.36404156684875,-116.50930023193359,0.00000000000000,0.00000000000000,0.00000000000000,0.00000000000000,0.00000000000000,0.00000000000000
1,1985403296,-0.11891697347164,-0.36523264646530,-116.50950622558594,0.02188494615257,-0.02335331402719,9.49106121063232,-0.60748004913330,3.40443944931030,0.29835462570190
2,1985411629,-0.11837886273861,-0.36610063910484,-116.50921630859375,0.01317485794425,-0.04275321960449,9.53735733032227,-0.56006813049316,3.43379330635071,0.34835362434387
3,1985419962,-0.11921490728855,-0.36565080285072,-116.50923156738281,0.02960083261132,-0.01656656898558,9.47559833526611,-0.72607380151749,3.60049033164978,0.31882038712502
4,1985428295,-0.11851646751165,-0.36492615938187,-116.50933074951172,0.04220050945878,-0.04627042636275,9.50570011138916,-0.54218930006027,3.62297964096069,0.30414342880249
5,1985436628,-0.11763776093721,-0.36529859900475,-116.50883483886719,0.01562897488475,-0.02630527503788,9.50679588317871,-0.51847052574158,3.50243949890137,0.37978225946426
6,1985444961,-0.11790481954813,-0.36454212665558,-116.50854492187500,0.02349146828055,-0.03364847972989,9.49194908142090,-0.65732532739639,3.62730860710144,0.35319465398788
7,1985453294,-0.11723595857620,-0.36496448516846,-116.50839996337891,0.02970011718571,-0.02385499514639,9.48443984985352,-0.54577535390854,3.49601030349731,0.33946549892426
8,1985461627,-0.11745227128267,-0.36474388837814,-116.50931549072266,0.01186912693083,-0.03116387128830,9.49927711486816,-0.65104991197586,3.56294035911560,0.21746487915516
9,1985469960,-0.11798796057701,-0.36528593301773,-116.50869750976562,0.01691677235067,-0.03808927536011,9.51879119873047,-0.68962496519089,3.48143577575684,0.39333221316338
10,1985478293,-0.11740983277559,-0.36567479372025,-116.50950622558594,0.02478350885212,-0.04014417156577,9.50505924224854,-0.55604666471481,3.49004220962524,0.23091234266758
11,1985486626,-0.11719082295895,-0.36498236656189,-116.51030731201172,0.01530009228736,-0.03386387974024,9.53524303436279,-0.60051292181015,3.62971615791321,0.22563581168652
12,1985494959,-0.11639733612537,-0.36443588137627,-116.51029968261719,0.04356783628464,-0.01982958242297,9.51457214355469,-0.52848565578461,3.60197544097900,0.32535195350647
13,1985503292,-0.11636482924223,-0.36433786153793,-116.51011657714844,0.02543421834707,-0.02631922438741,9.49772930145264,-0.62261801958084,3.55858564376831,0.34302580356598
14,1985511625,-0.11688521504402,-0.36446428298950,-116.51033782958984,0.05038632452488,-0.02258060686290,9.49993705749512,-0.68755018711090,3.52129173278809,0.30206868052483
15,1985519958,-0.11696687340736,-0.36456838250160,-116.51051330566406,0.00856357254088,-0.00870061386377,9.51298236846924,-0.63529706001282,3.53371453285217,0.30032691359520
16,1985528291,-0.11730216443539,-0.36418864130974,-116.51081848144531,0.02617561630905,-0.02932246960700,9.51627540588379,-0.66582918167114,3.58276510238647,0.28183338046074
17,1985536624,-0.11740309745073,-0.36360618472099,-116.51181030273438,0.02010900527239,-0.01330889016390,9.55274772644043,-0.63783276081085,3.61680626869202,0.20191697776318
18,1985544957,-0.11733164638281,-0.36342960596085,-116.51223754882812,0.00817510671914,-0.02206781320274,9.49088668823242,-0.61700856685638,3.55807352066040,0.27499446272850
19,1985553290,-0.11786792427301,-0.36337614059448,-116.51267242431641,0.02063563838601,-0.03153783455491,9.51325511932373,-0.69029080867767,3.55410313606262,0.26782241463661
20,1985561623,-0.11788091808558,-0.36282554268837,-116.51341247558594,0.04035678878427,-0.04042724519968,9.49530696868896,-0.62758713960648,3.60333371162415,0.23639374971390
21,1985569956,-0.11754985153675,-0.36300632357597,-116.51429748535156,0.00452278926969,-0.03592113405466,9.50819492340088,-0.58747529983521,3.52541542053223,0.21492905914783
22,1985578289,-0.11724004894495,-0.36263492703438,-116.51481628417969,0.03235781937838,-0.03629708662629,9.52187824249268,-0.58750087022781,3.58156180381775,0.26039430499077
23,1985586622,-0.11720747500658,-0.36309471726418,-116.51536560058594,0.02054676413536,-0.04404409229755,9.49201869964600,-0.62208020687103,3.49145102500916,0.25739747285843
24,1985594955,-0.11740272492170,-0.36276552081108,-116.51559448242188,0.03520721942186,-0.03324805200100,9.49749565124512,-0.64877009391785,3.57536292076111,0.29315489530563
25,1985603288,-0.11657892167568,-0.36265054345131,-116.51519775390625,0.02965580485761,-0.02558489143848,9.49253654479980,-0.52682083845139,3.55996918678284,0.36869132518768
26,1985611621,-0.11716400086880,-0.36228981614113,-116.51583099365234,0.02145721577108,-0.03250163421035,9.51354885101318,-0.69659185409546,3.57984495162964,0.24394994974136
27,1985619954,-0.11714962869883,-0.36187842488289,-116.51588439941406,0.03055110760033,-0.03310084715486,9.50169372558594,-0.62328398227692,3.59675073623657,0.31451717019081
28,1985628287,-0.11740253865719,-0.36159470677376,-116.51496887207031,0.01242669671774,-0.02307927235961,9.52257537841797,-0.65509682893753,3.56913876533508,0.43346968293190
29,1985636620,-0.11695162206888,-0.36071035265923,-116.51470947265625,0.03981445729733,-0.02549440786242,9.50939178466797,-0.57069802284241,3.65159082412720,0.35193955898285
30,1985644953,-0.11651873588562,-0.36016973853111,-116.51432800292969,0.01086746715009,-0.03800622001290,9.49546527862549,-0.57341301441193,3.60246253013611,0.37135511636734
31,1985653286,-0.11694004386663,-0.36065161228180,-116.51428222656250,0.02980494685471,-0.02072030492127,9.49614906311035,-0.67551147937775,3.48929953575134,0.32704257965088
32,1985661619,-0.11667713522911,-0.36048761010170,-116.51420593261719,0.01164580043405,-0.02144700475037,9.51480579376221,-0.59326416254044,3.55561470985413,0.33398404717445
33,1985669952,-0.11694731563330,-0.36068937182426,-116.51472473144531,0.03474617004395,-0.01427521463484,9.50986289978027,-0.65950250625610,3.52321267127991,0.25783291459084
34,1985678285,-0.11714677512646,-0.36052665114403,-116.51505279541016,0.01432251557708,-0.03564806655049,9.50155162811279,-0.64848846197128,3.55533289909363,0.28442046046257
35,1985686618,-0.11716625094414,-0.36037042737007,-116.51551818847656,0.02435067296028,-0.01113725081086,9.50420188903809,-0.62902152538300,3.56537342071533,0.26731014251709
36,1985694951,-0.11788034439087,-0.36066225171089,-116.51533508300781,0.03189076855779,-0.02128074690700,9.52081871032715,-0.70939916372299,3.50236272811890,0.34538239240646
37,1985703284,-0.11826219409704,-0.36006006598473,-116.51519012451172,0.02110530622303,-0.03398045524955,9.49661159515381,-0.67228394746780,3.61836910247803,0.33790296316147
38,1985711617,-0.11798987537622,-0.36018264293671,-116.51480865478516,0.03268824890256,-0.03142375126481,9.51491165161133,-0.59175288677216,3.52170157432556,0.36820465326309
39,1985719950,-0.11807165294886,-0.36037564277649,-116.51486206054688,0.03355935588479,-0.04166333749890,9.50561237335205,-0.63588625192642,3.52300786972046,0.31477338075638
40,1985728283,-0.11852441728115,-0.35943469405174,-116.51564025878906,0.01408537290990,-0.02734089456499,9.48732757568359,-0.67912298440933,3.65023326873779,0.23216742277145
41,1985736616,-0.11813471466303,-0.35961785912514,-116.51626586914062,0.02924474887550,-0.03580323234200,9.53166866302490,-0.57945793867111,3.52398061752319,0.24512821435928
42,1985744949,-0.11832969635725,-0.35883289575577,-116.51644134521484,0.02012861520052,-0.03560412675142,9.50887203216553,-0.64833462238312,3.63140678405762,0.30327254533768
43,1985753282,-0.11865536868572,-0.35878929495811,-116.51674652099609,0.01885691657662,-0.03333468735218,9.51124668121338,-0.66631597280502,3.55123448371887,0.28518891334534
44,1985761615,-0.11792309582233,-0.35858020186424,-116.51522827148438,0.03176645562053,-0.02828338555992,9.49038410186768,-0.53552961349487,3.56286334991455,0.50321727991104
45,1985769948,-0.11828869581223,-0.35831370949745,-116.51539611816406,0.02854744158685,-0.03790784627199,9.49673461914062,-0.66959458589554,3.57800102233887,0.30268341302872
46,1985778281,-0.11771371215582,-0.35866704583168,-116.51548767089844,0.02813420072198,-0.04178674519062,9.50192070007324,-0.55494523048401,3.49424266815186,0.31239119172096
47,1985786614,-0.11785351485014,-0.35902082920074,-116.51585388183594,0.02419608272612,-0.02613507583737,9.48546028137207,-0.64339125156403,3.50489854812622,0.27699235081673
48,1985794947,-0.11800400912762,-0.35885065793991,-116.51540374755859,0.01972188055515,-0.00538008054718,9.51651191711426,-0.64267402887344,3.55589652061462,0.37727209925652
49,1985803280,-0.11694049835205,-0.35885936021805,-116.51545715332031,0.02917106077075,-0.00891267601401,9.50153541564941,-0.49803039431572,3.54644465446472,0.31733480095863
50,1985811613,-0.11744183301926,-0.35859832167625,-116.51453399658203,0.04223813861609,-0.00784600339830,9.51844692230225,-0.68383598327637,3.56678247451782,0.43003737926483
51,1985819946,-0.11757790297270,-0.35802143812180,-116.51457214355469,0.04432297125459,-0.02453864365816,9.49471473693848,-0.64372402429581,3.61742115020752,0.31723228096962
52,1985828279,-0.11702287197113,-0.35658487677574,-116.51566314697266,0.01951945945621,-0.01689896173775,9.49050617218018,-0.55755782127380,3.70868444442749,0.18854634463787
53,1985836612,-0.11830868571997,-0.35621047019958,-116.51566314697266,0.01567092537880,-0.02488798834383,9.49836349487305,-0.78111886978149,3.59280633926392,0.32248318195343
54,1985844945,-0.11891397088766,-0.35630047321320,-116.51573181152344,0.02362008951604,-0.01552550774068,9.52848529815674,-0.69695049524307,3.52536368370056,0.31771892309189
55,1985853278,-0.11971236765385,-0.35584753751755,-116.51600646972656,0.02797211147845,-0.03169393539429,9.48384571075439,-0.72296166419983,3.60127115249634,0.28906941413879
56,1985861611,-0.12029753625393,-0.35517889261246,-116.51618194580078,0.00035946816206,-0.03259646520019,9.47606372833252,-0.69342857599258,3.61802339553833,0.29393616318703
57,1985869944,-0.12024632096291,-0.35474082827568,-116.51626586914062,0.01296565495431,-0.04054543748498,9.51777648925781,-0.62044078111649,3.59831309318542,0.31052133440971
58,1985878277,-0.11974242329597,-0.35499742627144,-116.51708984375000,0.02206932567060,-0.04642681032419,9.50500869750977,-0.56575447320938,3.50735735893250,0.21987260878086
59,1985886610,-0.12001600116491,-0.35551747679710,-116.51683807373047,0.02192866988480,-0.04131891950965,9.51207542419434,-0.65804255008698,3.48381805419922,0.35252872109413
60,1985894943,-0.11987763643265,-0.35524991154671,-116.51700592041016,0.00898608285934,-0.02980731427670,9.50706577301025,-0.60771054029465,3.56847286224365,0.30283710360527
61,1985903276,-0.11982661485672,-0.35518580675125,-116.51759338378906,0.01667912676930,-0.02805867604911,9.51167392730713,-0.62054324150085,3.55466651916504,0.25153177976608
62,1985911609,-0.11872059851885,-0.35477775335312,-116.51726531982422,0.03175285458565,-0.02347224019468,9.48444557189941,-0.49198547005653,3.58532738685608,0.35275927186012
63,1985919942,-0.11918675154448,-0.35502728819847,-116.51821899414062,0.03725002333522,-0.01625629141927,9.49926280975342,-0.68204313516617,3.51757764816284,0.20742408931255
64,1985928275,-0.11916957050562,-0.35496461391449,-116.51811218261719,0.01869986392558,-0.00930506270379,9.47141170501709,-0.62328398227692,3.54288411140442,0.33144819736481
65,1985936608,-0.11935536563396,-0.35521206259727,-116.51815032958984,0.02907333150506,-0.02568396367133,9.48192882537842,-0.64871895313263,3.51834607124329,0.31679686903954
66,1985944941,-0.11952161788940,-0.35583567619324,-116.51811218261719,0.02514488995075,-0.04243228211999,9.50406551361084,-0.64458227157593,3.46111083030701,0.32777255773544
67,1985953274,-0.11917494237423,-0.35605216026306,-116.51831817626953,0.02346033602953,-0.02670681104064,9.50519561767578,-0.58447849750519,3.51993393898010,0.29681780934334
68,1985961607,-0.12011845409870,-0.35685673356056,-116.51821899414062,0.04016347602010,-0.01784839108586,9.50172996520996,-0.73614042997360,3.44078612327576,0.33295944333076
69,1985969940,-0.11941577494144,-0.35722112655640,-116.51890563964844,0.03423048928380,-0.04181459918618,9.50481796264648,-0.54208689928055,3.50215768814087,0.24056892096996
70,1985978273,-0.11939340084791,-0.35696855187416,-116.51908111572266,0.04170103371143,-0.02371580712497,9.53013420104980,-0.62259244918823,3.56788372993469,0.30532169342041
71,1985986606,-0.11897531896830,-0.35733574628830,-116.51875305175781,0.02541407197714,-0.03709792345762,9.51026725769043,-0.57661485671997,3.50195288658142,0.36121195554733
72,1985994939,-0.11916485428810,-0.35738846659660,-116.51752471923828,0.03290760889649,-0.04002523049712,9.49264335632324,-0.64500480890274,3.52999997138977,0.46830505132675
73,1986003272,-0.11922835558653,-0.35772082209587,-116.51654052734375,0.01421655062586,-0.02282889932394,9.50543689727783,-0.63314539194107,3.50553846359253,0.44053921103477
74,1986011605,-0.11962557584047,-0.35695689916611,-116.51650238037109,0.00786224193871,-0.03585929796100,9.49207973480225,-0.67179727554321,3.62794899940491,0.31887158751488
75,1986019938,-0.11952518671751,-0.35699820518494,-116.51721191406250,0.02415450103581,-0.04194122925401,9.49754810333252,-0.61449831724167,3.54214119911194,0.23547165095806
76,1986028271,-0.11979304999113,-0.35713508725166,-116.51702880859375,0.02485808730125,-0.01491613313556,9.48005390167236,-0.65760713815689,3.51814103126526,0.34043884277344
77,1986036604,-0.11975788325071,-0.35660061240196,-116.51776885986328,0.01265963912010,-0.03118693828583,9.48263263702393,-0.62100428342819,3.61137628555298,0.23393480479717
78,1986044937,-0.11899346113205,-0.35667043924332,-116.51716613769531,0.00254823826253,-0.03850490972400,9.51395988464355,-0.53332686424255,3.52705478668213,0.39066833257675
79,1986053270,-0.11874084174633,-0.35629561543465,-116.51645660400391,0.01101044937968,-0.01045271195471,9.50957870483398,-0.59477525949478,3.59157657623291,0.40770170092583
80,1986061603,-0.11925379931927,-0.35525214672089,-116.51539611816406,0.04157597944140,-0.02929970994592,9.51283740997314,-0.68608993291855,3.66219472885132,0.45298770070076
81,1986069936,-0.12003803998232,-0.35595583915710,-116.51636505126953,0.02820673026145,-0.02508959174156,9.50628376007080,-0.72113043069839,3.46266078948975,0.20347949862480
82,1986078269,-0.12017041444778,-0.35519397258759,-116.51671600341797,0.03336823731661,-0.01130354683846,9.51589965820312,-0.64077848196030,3.62784647941589,0.26836031675339
83,1986086602,-0.11974478513002,-0.35563513636589,-116.51657867431641,0.03303957730532,-0.02303627878428,9.50491809844971,-0.57446324825287,3.49314141273499,0.33838966488838
84,1986094935,-0.11947264522314,-0.35593098402023,-116.51667785644531,0.03381248190999,-0.02553687058389,9.55723476409912,-0.59249567985535,3.50085139274597,0.31210950016975
85,1986103268,-0.11957485228777,-0.35576429963112,-116.51683807373047,0.03712254390121,-0.02419552765787,9.51074314117432,-0.63729500770569,3.56696176528931,0.30250415205956
86,1986111601,-0.11897945404053,-0.35526597499847,-116.51678466796875,0.01286148093641,-0.03183205425739,9.51756763458252,-0.55363887548447,3.59649467468262,0.32975763082504
87,1986119934,-0.11930267512798,-0.35499218106270,-116.51700592041016,0.01461925450712,-0.05478515103459,9.49781894683838,-0.66408747434616,3.57956361770630,0.29451242089272
88,1986128267,-0.11919341981411,-0.35487565398216,-116.51733398437500,0.02226804941893,-0.04343311116099,9.48330783843994,-0.61306393146515,3.54900622367859,0.26505610346794
89,1986136600,-0.11929190903902,-0.35515531897545,-116.51738739013672,0.02759540453553,-0.02801836654544,9.51200580596924,-0.63706445693970,3.51401710510254,0.31764215230942
90,1986144933,-0.11885286867619,-0.35601663589478,-116.51709747314453,0.01024280861020,-0.04095585271716,9.48125839233398,-0.57174807786942,3.43264031410217,0.35055640339851
91,1986153266,-0.11881703883410,-0.35624578595161,-116.51754760742188,0.03344705328345,-0.04692829027772,9.48641204833984,-0.62297666072845,3.51942181587219,0.26649051904678
92,1986161599,-0.11901396512985,-0.35593158006668,-116.51704406738281,0.03122746571898,-0.02405531518161,9.51571273803711,-0.64751505851746,3.57367229461670,0.38293281197548
93,1986169932,-0.11938858777285,-0.35560023784637,-116.51693725585938,0.03372384980321,-0.04674771800637,9.51212882995605,-0.67079830169678,3.58755469322205,0.33447059988976
94,1986178265,-0.11915283650160,-0.35572206974030,-116.51789093017578,0.02963789738715,-0.03521846234798,9.49753475189209,-0.59574866294861,3.52147102355957,0.21044658124447
95,1986186598,-0.11902718991041,-0.35571649670601,-116.51790618896484,0.02927404083312,-0.02539393305779,9.51769924163818,-0.61173194646835,3.54654717445374,0.32081833481789
96,1986194931,-0.11912436783314,-0.35524243116379,-116.51779937744141,0.03156524896622,-0.03159800916910,9.48950386047363,-0.63575810194016,3.59470176696777,0.33047482371330
97,1986203264,-0.11862409859896,-0.35486468672752,-116.51797485351562,0.02483962848783,-0.02855107933283,9.51545333862305,-0.56762421131134,3.59119224548340,0.29935356974602
98,1986211597,-0.11861930787563,-0.35514017939568,-116.51761627197266,0.01571789197624,-0.02580808475614,9.50765419006348,-0.62225949764252,3.50197839736938,0.36269760131836
99,1986219930,-0.11875820904970,-0.35491821169853,-116.51761627197266,0.03079971112311,-0.01586397364736,9.50857448577881,-0.64362156391144,3.57382607460022,0.32097193598747
100,1986228263,-0.11976095288992,-0.35404357314110,-116.51731872558594,0.03001869097352,-0.02678144536912,9.49368667602539,-0.74413192272186,3.64042305946350,0.36108383536339
101,1986236596,-0.12042586505413,-0.35477519035339,-116.51740264892578,0.03283671662211,-0.02212503366172,9.48393917083740,-0.70635098218918,3.45981740951538,0.31169962882996
102,1986244929,-0.12008462846279,-0.35497519373894,-116.51725006103516,0.02481334656477,-0.00848821364343,9.50393009185791,-0.58296728134155,3.51268529891968,0.34297463297844
103,1986253262,-0.11961794644594,-0.35528439283371,-116.51697540283203,0.01945269666612,-0.02414600551128,9.50340652465820,-0.57046741247177,3.50943183898926,0.35437291860580
104,1986261595,-0.11991111189127,-0.35579758882523,-116.51657104492188,0.02040597610176,-0.02678012661636,9.52919197082520,-0.65909272432327,3.47477626800537,0.36971589922905
105,1986269928,-0.12020715326071,-0.35551846027374,-116.51690673828125,0.01606915518641,-0.02904949709773,9.53563785552979,-0.66137230396271,3.57999897003174,0.28198707103729
106,1986278261,-0.12001436203718,-0.35579332709312,-116.51715087890625,0.00783519074321,-0.03917805105448,9.45582962036133,-0.60140955448151,3.50287485122681,0.28903105854988
107,1986286594,-0.11979293078184,-0.35564202070236,-116.51660919189453,0.02801156044006,-0.05197625979781,9.50209903717041,-0.59992378950119,3.56480979919434,0.38621142506599
108,1986294927,-0.12006653845310,-0.35579735040665,-116.51738739013672,0.01124676503241,-0.05076782405376,9.49293041229248,-0.65706914663315,3.51888394355774,0.22463686764240
109,1986303260,-0.11968963593245,-0.35606414079666,-116.51782226562500,0.04899351298809,-0.03047707490623,9.52328395843506,-0.58171218633652,3.51581025123596,0.26894950866699
110,1986311593,-0.11930967867374,-0.35624817013741,-116.51789093017578,0.04349959269166,-0.04054596275091,9.50524234771729,-0.57948368787766,3.51350474357605,0.31587478518486
111,1986319926,-0.12000818550587,-0.35610759258270,-116.51824951171875,0.02041677385569,-0.04673140123487,9.51361274719238,-0.70919412374496,3.56376004219055,0.27899029850960
112,1986328259,-0.12011530995369,-0.35567831993103,-116.51802825927734,0.01579826511443,-0.02887473441660,9.48691272735596,-0.63744866847992,3.58694052696228,0.34082296490669
113,1986336592,-0.11973816901445,-0.35525378584862,-116.51795959472656,0.02258941344917,-0.00917225237936,9.51293373107910,-0.58073866367340,3.59787774085999,0.33147379755974
114,1986344925,-0.11943646520376,-0.35492148995399,-116.51800537109375,0.01071009878069,-0.00516744842753,9.51700973510742,-0.58765459060669,3.57646465301514,0.31672006845474
115,1986353258,-0.11961619555950,-0.35499143600464,-116.51792144775391,0.02091155946255,-0.02261777408421,9.50628185272217,-0.64690029621124,3.53835034370422,0.33129450678825
116,1986361591,-0.11972193419933,-0.35430446267128,-116.51792144775391,0.01167668495327,-0.01864778622985,9.50135326385498,-0.63770478963852,3.61988043785095,0.32220146059990
117,1986369924,-0.11944381147623,-0.35470283031464,-116.51770019531250,0.01891516521573,-0.01238910015672,9.52867794036865,-0.59349459409714,3.49782848358154,0.34827673435211
118,1986378257,-0.11865463107824,-0.35440889000893,-116.51709747314453,0.02216772921383,-0.03542635962367,9.50104618072510,-0.52961283922195,3.57262253761292,0.39143678545952
119,1986386590,-0.11879309266806,-0.35427677631378,-116.51692199707031,0.01592539250851,-0.02211609296501,9.50519371032715,-0.64195680618286,3.56273531913757,0.34192442893982
120,1986394923,-0.11906399577856,-0.35304242372513,-116.51586914062500,0.02980837225914,-0.03411677479744,9.52042865753174,-0.65532732009888,3.68391585350037,0.44914561510086
121,1986403256,-0.11930827796459,-0.35284647345543,-116.51545715332031,0.00836687255651,-0.02365106530488,9.47754669189453,-0.65599334239960,3.57054734230042,0.37084290385246
122,1986411589,-0.11935853213072,-0.35389164090157,-116.51555633544922,0.01797571033239,-0.03174121677876,9.49284744262695,-0.63050723075867,3.41194438934326,0.31200700998306
123,1986419922,-0.11926208436489,-0.35343784093857,-116.51558685302734,0.03825755417347,-0.03453249111772,9.49203777313232,-0.61419081687927,3.60054111480713,0.31943506002426
124,1986428255,-0.11888810247183,-0.35308304429054,-116.51567840576172,0.02298119477928,-0.04619906470180,9.52569484710693,-0.57971423864365,3.57938456535339,0.31052136421204
125,1986436588,-0.11781321465969,-0.35283237695694,-116.51526641845703,0.02065897919238,-0.04001471027732,9.53691577911377,-0.49654477834702,3.57633662223816,0.37207242846489
126,1986444921,-0.11770062148571,-0.35160425305367,-116.51567840576172,0.01761700026691,-0.03413718938828,9.49714851379395,-0.61178320646286,3.68419766426086,0.26851400732994
127,1986453254,-0.11814694851637,-0.35115274786949,-116.51588439941406,0.02450207248330,-0.04389550536871,9.51175403594971,-0.67871314287186,3.60113024711609,0.29658719897270
128,1986461587,-0.11896256357431,-0.35050842165947,-116.51564025878906,0.02245169132948,-0.04608225077391,9.49988651275635,-0.72307699918747,3.61291313171387,0.35683190822601
129,1986469920,-0.11870837211609,-0.35070100426674,-116.51434326171875,0.03337606787682,-0.02409057132900,9.52320861816406,-0.59380209445953,3.52451896667480,0.47875571250916
130,1986478253,-0.11796753108501,-0.35041770339012,-116.51415252685547,0.02708158455789,-0.02266260981560,9.47799396514893,-0.53614437580109,3.57141828536987,0.33926051855087
131,1986486586,-0.11763737350702,-0.35052689909935,-116.51372528076172,0.02718628197908,-0.02774180471897,9.51529598236084,-0.58663004636765,3.53279232978821,0.37271279096603
132,1986494919,-0.11788179725409,-0.35065847635269,-116.51382446289062,0.03123433329165,-0.01310641691089,9.52129840850830,-0.65445649623871,3.52113795280457,0.31167405843735
133,1986503252,-0.11796599626541,-0.35133469104767,-116.51322174072266,0.02364838868380,-0.02644529566169,9.51826286315918,-0.63506662845612,3.46609282493591,0.39138552546501
134,1986511585,-0.11765431612730,-0.35131090879440,-116.51346588134766,0.02928724698722,-0.01490272488445,9.50375270843506,-0.58752650022507,3.53847837448120,0.29745811223984
135,1986519918,-0.11764807254076,-0.35060214996338,-116.51372528076172,0.04242394492030,-0.01975509710610,9.48688888549805,-0.62543559074402,3.63191890716553,0.29179733991623
136,1986528251,-0.11731530725956,-0.35088345408440,-116.51371002197266,0.02111808769405,-0.05329690873623,9.51760959625244,-0.58417111635208,3.50292563438416,0.32320043444633
137,1986536584,-0.11795510351658,-0.35074058175087,-116.51402282714844,0.03189852833748,-0.04198504984379,9.50385189056396,-0.70258569717407,3.56440043449402,0.28293484449387
138,1986544917,-0.11804677546024,-0.35008847713470,-116.51376342773438,0.02178839221597,-0.02492002770305,9.48147773742676,-0.63639843463898,3.61434793472290,0.35849681496620
139,1986553250,-0.11843844503164,-0.34914717078209,-116.51443481445312,0.00794592872262,-0.05038290843368,9.51770019531250,-0.67269378900528,3.66029977798462,0.24164468050003
140,1986561583,-0.11854751408100,-0.34878528118134,-116.51422119140625,0.04944286122918,-0.04536548256874,9.51412773132324,-0.63819146156311,3.57958936691284,0.34671428799629
141,1986569916,-0.11806049942970,-0.34934076666832,-116.51413726806641,0.01311752945185,-0.03681045398116,9.49792480468750,-0.56721442937851,3.47954034805298,0.33336931467056
142,1986578249,-0.11757570505142,-0.34979277849197,-116.51390075683594,0.01330684684217,-0.01673085801303,9.49646663665771,-0.56583130359650,3.48205065727234,0.34543362259865
143,1986586582,-0.11685377359390,-0.35013929009438,-116.51425933837891,0.02548808790743,-0.01255793962628,9.53367805480957,-0.53978157043457,3.50494980812073,0.27796569466591
144,1986594915,-0.11669799685478,-0.34959790110588,-116.51410675048828,0.03166907280684,-0.04268112778664,9.49561214447021,-0.60450863838196,3.60051536560059,0.34020820260048
145,1986603248,-0.11725975573063,-0.34907868504524,-116.51434326171875,0.03872638195753,-0.03652981296182,9.55797290802002,-0.69433784484863,3.60935282707214,0.29210472106934
146,1986611581,-0.11715906113386,-0.34926983714104,-116.51467895507812,0.02491194009781,-0.00125318602659,9.51212787628174,-0.61229544878006,3.51365804672241,0.28301167488098
147,1986619914,-0.11728179454803,-0.34926304221153,-116.51467895507812,0.01794728823006,-0.01210640650243,9.53244686126709,-0.64118832349777,3.54705929756165,0.32181721925735
148,1986628247,-0.11770571768284,-0.35010933876038,-116.51486968994141,0.01151451468468,0.00096804712666,9.51110076904297,-0.67558825016022,3.43466424942017,0.30373361706734
149,1986636580,-0.11770494282246,-0.34992122650146,-116.51436614990234,0.01611690595746,-0.02990077622235,9.50212574005127,-0.62464159727097,3.56995868682861,0.38262546062469
150,1986644913,-0.11751618236303,-0.34956052899361,-116.51472473144531,0.02887843921781,-0.03352179378271,9.48827362060547,-0.60271579027176,3.57979464530945,0.28203839063644
151,1986653246,-0.11753264069557,-0.34984993934631,-116.51436614990234,0.02107134088874,-0.02050097100437,9.49349308013916,-0.62727975845337,3.51189088821411,0.36607864499092
152,1986661579,-0.11812844127417,-0.34956875443459,-116.51455688476562,0.02768007479608,-0.02905583567917,9.51111984252930,-0.69743716716766,3.57013750076294,0.29589563608170
153,1986669912,-0.11893478035927,-0.34980601072311,-116.51529693603516,0.02659900858998,-0.03545586019754,9.51864147186279,-0.72248792648315,3.51785922050476,0.23339693248272
154,1986678245,-0.11876877397299,-0.35019454360008,-116.51480865478516,0.02593275532126,-0.04484886303544,9.52287578582764,-0.60417580604553,3.48922276496887,0.37194430828094
155,1986686578,-0.11829473078251,-0.35028237104416,-116.51451873779297,0.02158818766475,-0.03796002268791,9.52193927764893,-0.56921237707138,3.53712129592896,0.35598665475845
156,1986694911,-0.12482710927725,-0.37134143710136,-116.49976348876953,0.03521241992712,-0.04046253114939,9.50314426422119,-0.59464734792709,3.47124123573303,0.33621248602867
157,1986703244,-0.12466521561146,-0.37077826261520,-116.50043487548828,0.03723355755210,-0.03931997716427,9.49395370483398,-0.60804349184036,3.61386132240295,0.24079941213131
158,1986711577,-0.12531232833862,-0.37032014131546,-116.50026702880859,0.02065968699753,-0.00973924808204,9.50937175750732,-0.70125371217728,3.59213995933533,0.34463953971863
159,1986719910,-0.12442024797201,-0.36970132589340,-116.50026702880859,0.04097112268209,-0.02980506606400,9.49329853057861,-0.51816320419312,3.62297964096069,0.32294425368309
160,1986728243,-0.12524963915348,-0.36958035826683,-116.50007629394531,0.02197127416730,-0.04223518446088,9.51266288757324,-0.72448593378067,3.55141377449036,0.33411210775375
161,1986736576,-0.12549836933613,-0.36932331323624,-116.50077819824219,0.00682122027501,-0.01094863936305,9.51122856140137,-0.65494316816330,3.57994794845581,0.23754639923573
162,1986744909,-0.12602281570435,-0.36935192346573,-116.50050354003906,-0.00621947832406,-0.01209690421820,9.51252937316895,-0.68657678365707,3.53327918052673,0.35170906782150
163,1986753242,-0.12649059295654,-0.36901497840881,-116.50070953369141,0.02279867604375,-0.01351525541395,9.52210426330566,-0.68224793672562,3.58791375160217,0.29494789242744
164,1986761575,-0.12689504027367,-0.36915320158005,-116.50078582763672,0.02564181946218,-0.03593350946903,9.49997425079346,-0.67315489053726,3.52118921279907,0.30921506881714
165,1986769908,-0.12695562839508,-0.36964565515518,-116.50159454345703,0.01500842347741,-0.03219220787287,9.49600887298584,-0.63347846269608,3.48947834968567,0.22432945668697
166,1986778241,-0.12713855504990,-0.36988443136215,-116.50147247314453,0.03497889637947,-0.02808075025678,9.50663471221924,-0.64497929811478,3.50863814353943,0.33544406294823
167,1986786574,-0.12732854485512,-0.37023442983627,-116.50133514404297,0.04062296822667,-0.01673159189522,9.50168037414551,-0.64805305004120,3.50548768043518,0.33728826045990
168,1986794907,-0.12614943087101,-0.37071731686592,-116.50022888183594,0.02614250406623,-0.01123621873558,9.47323036193848,-0.48273861408234,3.48020601272583,0.44914561510086
169,1986803240,-0.12644779682159,-0.37126642465591,-116.49922180175781,0.01256537437439,-0.03059570491314,9.49859619140625,-0.66055274009705,3.48133325576782,0.44143578410149
170,1986811573,-0.12674440443516,-0.37097772955894,-116.49927520751953,0.01463197357953,-0.02597172372043,9.49023056030273,-0.65878534317017,3.57106018066406,0.31472215056419
171,1986819906,-0.12707902491093,-0.37040990591049,-116.49958801269531,0.02987346239388,-0.03684729337692,9.50090503692627,-0.66641825437546,3.61601233482361,0.28408744931221
172,1986828239,-0.12701998651028,-0.37012454867363,-116.50041961669922,0.01395370252430,-0.04203661158681,9.47796726226807,-0.61805868148804,3.57200765609741,0.22089718282223
173,1986836572,-0.12650775909424,-0.37041208148003,-116.50112915039062,0.01968026347458,-0.03540142253041,9.49487304687500,-0.56403833627701,3.51404261589050,0.23524115979671
174,1986844905,-0.12623019516468,-0.37057226896286,-116.50069427490234,0.01022411230952,-0.02427835948765,9.52623653411865,-0.59154796600342,3.51855087280273,0.36810219287872
175,1986853238,-0.12674281001091,-0.36999142169952,-116.50157928466797,0.04014918580651,-0.02696604654193,9.48213768005371,-0.68742197751999,3.61737036705017,0.21610729396343
176,1986861571,-0.12631151080132,-0.36982831358910,-116.50200653076172,0.04131288826466,-0.02303813025355,9.48562812805176,-0.57336187362671,3.55686926841736,0.26853963732719
177,1986869904,-0.12638880312443,-0.37027630209923,-116.50282287597656,0.02288636565208,-0.02185745164752,9.52810668945312,-0.63445186614990,3.49408936500549,0.22112770378590
178,1986878237,-0.12586647272110,-0.37120801210403,-116.50235748291016,0.02379055134952,-0.02776877582073,9.49978828430176,-0.56099009513855,3.42493057250977,0.37983343005180
179,1986886570,-0.12547241151333,-0.37183979153633,-116.50181579589844,0.03435014560819,-0.02164799533784,9.53625583648682,-0.57789564132690,3.47211217880249,0.38541743159294
180,1986894903,-0.12585318088531,-0.37072041630745,-116.50183105468750,0.02118971943855,-0.02163828536868,9.52419281005859,-0.66977381706238,3.67231273651123,0.32033163309097
181,1986903236,-0.12601348757744,-0.37048935890198,-116.50119781494141,0.02255286276340,-0.01043394673616,9.51993656158447,-0.64487671852112,3.57595205307007,0.39725112915039
182,1986911569,-0.12620913982391,-0.37044823169708,-116.50105285644531,0.01692137867212,-0.01582926511765,9.51481533050537,-0.64728456735611,3.54234671592712,0.33680161833763
183,1986919902,-0.12625358998775,-0.37080931663513,-116.50214385986328,0.02522180415690,-0.02407680079341,9.49672603607178,-0.63135248422623,3.50538516044617,0.19067238271236
184,1986928235,-0.12647841870785,-0.37007665634155,-116.50247192382812,0.03079645521939,-0.03037167526782,9.50412368774414,-0.65143394470215,3.62420892715454,0.27850353717804
185,1986936568,-0.12614156305790,-0.36965635418892,-116.50216674804688,0.03830715641379,-0.02304392866790,9.51758766174316,-0.58496505022049,3.59892797470093,0.35865047574043
186,1986944901,-0.12564221024513,-0.36960348486900,-116.50278472900391,0.01950317062438,-0.02777331136167,9.53580856323242,-0.56585687398911,3.54370403289795,0.24379628896713
187,1986953234,-0.12571699917316,-0.37012714147568,-116.50327301025391,0.04741860926151,-0.02721663936973,9.52857685089111,-0.63440060615540,3.48527812957764,0.26144453883171
188,1986961567,-0.12579551339149,-0.36982035636902,-116.50308227539062,0.02797149121761,-0.03974786773324,9.48838520050049,-0.63396507501602,3.57341599464417,0.34553602337837
189,1986969900,-0.12688806653023,-0.36923295259476,-116.50308227539062,0.04104551672935,-0.02661594562232,9.51761722564697,-0.75658041238785,3.61888146400452,0.32194530963898
190,1986978233,-0.12775295972824,-0.36879459023476,-116.50316619873047,0.01529957354069,-0.02872464247048,9.52306175231934,-0.72784125804901,3.58962988853455,0.30598765611649
191,1986986566,-0.12788082659245,-0.36770358681679,-116.50387573242188,0.02939059026539,-0.03042169474065,9.53445243835449,-0.64152133464813,3.67981791496277,0.23613762855530
192,1986994899,-0.12771140038967,-0.36744186282158,-116.50447845458984,0.01559289637953,-0.04924667254090,9.48854827880859,-0.60330498218536,3.56760215759277,0.24594791233540
193,1987003232,-0.12771123647690,-0.36661604046822,-116.50413513183594,0.02883695811033,-0.02905053086579,9.50323677062988,-0.62564045190811,3.64618635177612,0.36182665824890
194,1987011565,-0.12842638790607,-0.36638841032982,-116.50339508056641,0.03526562824845,-0.03538503497839,9.51898193359375,-0.70965516567230,3.56375956535339,0.41702532768250
195,1987019898,-0.12860152125359,-0.36657691001892,-116.50331878662109,0.03592107445002,-0.03299146145582,9.49516868591309,-0.64643931388855,3.52672195434570,0.33073106408119
196,1987028231,-0.12888686358929,-0.36672341823578,-116.50353240966797,0.02280161529779,-0.02320103161037,9.51488113403320,-0.65787607431412,3.52020287513733,0.30177411437035
197,1987036564,-0.12850467860699,-0.36638486385345,-116.50416564941406,0.04717710614204,-0.03473895043135,9.50313377380371,-0.57993197441101,3.58902835845947,0.24583262205124
198,1987044897,-0.12915545701981,-0.36666515469551,-116.50420379638672,0.02096009254456,-0.02151963859797,9.50770473480225,-0.70268815755844,3.50397634506226,0.31390243768692
199,1987053230,-0.12992087006569,-0.36692541837692,-116.50347900390625,0.01182791311294,-0.02510548941791,9.49420642852783,-0.71705770492554,3.51596403121948,0.40642109513283
200,1987061563,-0.12989471852779,-0.36640423536301,-116.50360107421875,0.01280610542744,-0.02232014946640,9.53654384613037,-0.62059444189072,3.60008049011230,0.31715542078018
201,1987069896,-0.12947209179401,-0.36673587560654,-116.50378417968750,0.02076574973762,-0.01675408147275,9.52423667907715,-0.57433521747589,3.50856137275696,0.29991707205772
202,1987078229,-0.12927210330963,-0.36665099859238,-116.50376892089844,0.02403550222516,-0.01913555897772,9.52271270751953,-0.59984701871872,3.54711055755615,0.32430186867714
203,1987086562,-0.12967890501022,-0.36614513397217,-116.50413513183594,0.01440357696265,-0.04603051021695,9.51337623596191,-0.67461496591568,3.60940408706665,0.27509686350822
204,1987094895,-0.12875370681286,-0.36494970321655,-116.50446319580078,0.02866377681494,-0.02314187772572,9.50743579864502,-0.51370626688004,3.68150830268860,0.28180778026581
205,1987103228,-0.12888184189796,-0.36550623178482,-116.50487518310547,0.03010625764728,-0.01860176585615,9.50853729248047,-0.64226418733597,3.48051381111145,0.27263793349266
206,1987111561,-0.12818790972233,-0.36464127898216,-116.50456237792969,0.02874084003270,-0.02648813836277,9.53191184997559,-0.53937166929245,3.64019203186035,0.36087888479233
207,1987119894,-0.12894648313522,-0.36533600091934,-116.50456237792969,0.03778257966042,-0.04560069739819,9.52923107147217,-0.71785169839859,3.46563148498535,0.31879475712776
208,1987128227,-0.12950931489468,-0.36503282189369,-116.50451660156250,0.02214714512229,-0.03877139091492,9.51134777069092,-0.69047009944916,3.57387733459473,0.32832327485085
209,1987136560,-0.12937356531620,-0.36451241374016,-116.50479125976562,0.02501377277076,-0.03016443550587,9.48528289794922,-0.60906797647476,3.61096620559692,0.28767344355583
210,1987144893,-0.12928539514542,-0.36420136690140,-116.50514984130859,0.01583922468126,-0.02131971903145,9.51767444610596,-0.61367875337601,3.57467174530029,0.28506085276604
211,1987153226,-0.12857793271542,-0.36378076672554,-116.50518798828125,0.02128356136382,-0.01271205488592,9.49209117889404,-0.54142075777054,3.59764671325684,0.31643819808960
212,1987161559,-0.12885834276676,-0.36385944485664,-116.50491333007812,0.00909944158047,-0.00941296014935,9.48216056823730,-0.65760707855225,3.52851486206055,0.34832799434662
213,1987169892,-0.12927338480949,-0.36381089687347,-116.50501251220703,0.02713489346206,-0.04641331359744,9.49209117889404,-0.67520409822464,3.55328392982483,0.31011158227921
214,1987178225,-0.12867768108845,-0.36372733116150,-116.50525665283203,0.03251783549786,-0.02774183824658,9.50521850585938,-0.55230695009232,3.54823732376099,0.28869807720184
215,1987186558,-0.12894397974014,-0.36401927471161,-116.50535583496094,0.02055340632796,-0.02374627068639,9.50896358489990,-0.65860605239868,3.51232671737671,0.30890771746635
216,1987194891,-0.12902817130089,-0.36479327082634,-116.50531005859375,0.01720592938364,-0.02944709919393,9.51361274719238,-0.63347852230072,3.44570398330688,0.32427626848221
217,1987203224,-0.12948727607727,-0.36490797996521,-116.50498199462891,0.02559124678373,-0.03105585090816,9.49983215332031,-0.68058311939240,3.53340721130371,0.35939338803291
218,1987211557,-0.12942151725292,-0.36489859223366,-116.50498199462891,0.02081116847694,-0.01553370431066,9.51025962829590,-0.61629140377045,3.53919601440430,0.32322606444359
219,1987219890,-0.12934245169163,-0.36535435914993,-116.50427246093750,0.02411747910082,-0.03302287682891,9.52575302124023,-0.61495941877365,3.49334645271301,0.40672844648361
220,1987228223,-0.12862938642502,-0.36580377817154,-116.50421905517578,0.02211421355605,0.00026550717303,9.49069786071777,-0.53934615850449,3.48312640190125,0.32627412676811
221,1987236556,-0.12829442322254,-0.36581021547318,-116.50428771972656,0.02143220603466,-0.02973436936736,9.50392150878906,-0.58534932136536,3.54739212989807,0.31456840038300
222,1987244889,-0.12827010452747,-0.36565044522285,-116.50491333007812,0.01507119741291,-0.01648576930165,9.50812625885010,-0.62197768688202,3.55663919448853,0.24010783433914
223,1987253222,-0.12803588807583,-0.36644211411476,-116.50529479980469,0.00448885606602,-0.02303020283580,9.50845336914062,-0.59823334217072,3.45418238639832,0.27517372369766
224,1987261555,-0.12857715785503,-0.36677703261375,-116.50585937500000,0.03942683339119,-0.02509169094265,9.52153587341309,-0.68839538097382,3.49667644500732,0.25250512361526
225,1987269888,-0.12857691943645,-0.36711677908897,-116.50547790527344,0.03515163809061,-0.01618205197155,9.52790832519531,-0.62497454881668,3.50705003738403,0.36592498421669
226,1987278221,-0.12786093354225,-0.36675724387169,-116.50529479980469,0.02456797659397,-0.01936540380120,9.48837852478027,-0.53926932811737,3.58063983917236,0.34676554799080
227,1987286554,-0.12727656960487,-0.36678254604340,-116.50503540039062,0.03073927946389,-0.02842118218541,9.48338127136230,-0.55384385585785,3.54462623596191,0.35201644897461
228,1987294887,-0.12729802727699,-0.36682736873627,-116.50469970703125,0.02748057246208,-0.01548343058676,9.50571823120117,-0.62712615728378,3.53176784515381,0.35824069380760
229,1987303220,-0.12744115293026,-0.36683151125908,-116.50389099121094,0.01853671669960,-0.02002151310444,9.50543689727783,-0.64134204387665,3.54721283912659,0.41789621114731
230,1987311553,-0.12820979952812,-0.36706924438477,-116.50413513183594,0.02581384778023,-0.02390167303383,9.50997924804688,-0.71728819608688,3.50945758819580,0.29658722877502
231,1987319886,-0.12792818248272,-0.36634829640388,-116.50450134277344,0.02302045561373,-0.02725488319993,9.51256179809570,-0.59170156717300,3.63378882408142,0.27832424640656
232,1987328219,-0.12802343070507,-0.36599943041801,-116.50510406494141,0.03982008621097,-0.02705398947001,9.51592159271240,-0.63552761077881,3.57943582534790,0.25265887379646
233,1987336552,-0.12771625816822,-0.36514294147491,-116.50585937500000,0.01813286170363,-0.02194990217686,9.48136043548584,-0.58972930908203,3.65089917182922,0.23088669776917
234,1987344885,-0.12648101150990,-0.36485821008682,-116.50556945800781,0.01815194636583,-0.01411677431315,9.51816940307617,-0.47492638230324,3.57077836990356,0.35652452707291
235,1987353218,-0.12652415037155,-0.36609855294228,-116.50522613525391,0.01005862466991,-0.02460541948676,9.51130104064941,-0.63081461191177,3.39900922775269,0.35890671610832
236,1987361551,-0.12776906788349,-0.36597812175751,-116.50515747070312,0.00598978996277,-0.02317745983601,9.50923347473145,-0.77389556169510,3.55218172073364,0.32535195350647
237,1987369884,-0.12780986726284,-0.36629667878151,-116.50496673583984,0.02433744072914,-0.02938163653016,9.52373409271240,-0.63076341152191,3.51012349128723,0.34323075413704
238,1987378217,-0.12778820097446,-0.36602503061295,-116.50487518310547,0.01805934123695,-0.03213746100664,9.49050903320312,-0.62013345956802,3.57057332992554,0.33703210949898
239,1987386550,-0.12807336449623,-0.36587980389595,-116.50508117675781,0.03130169212818,-0.04268467798829,9.51652145385742,-0.66042464971542,3.56514310836792,0.29610058665276
240,1987394883,-0.12783826887608,-0.36532598733902,-116.50466918945312,0.02296497672796,-0.01161055918783,9.50809860229492,-0.59579986333847,3.60489583015442,0.36146801710129
241,1987403216,-0.12778475880623,-0.36511859297752,-116.50524139404297,0.02566524036229,-0.01057968102396,9.48305892944336,-0.62023591995239,3.57231521606445,0.25306865572929
242,1987411549,-0.12704989314079,-0.36438363790512,-116.50537872314453,0.01860454306006,-0.02366318367422,9.50423622131348,-0.53609311580658,3.62515711784363,0.30795994400978
243,1987419882,-0.12768827378750,-0.36361759901047,-116.50561523437500,0.03132269904017,-0.03570242598653,9.51221370697021,-0.70171475410461,3.64093518257141,0.29366719722748
244,1987428215,-0.12843167781830,-0.36427029967308,-116.50596618652344,0.02320273779333,-0.03604254499078,9.50090312957764,-0.71275460720062,3.45835757255554,0.28257623314857
245,1987436548,-0.12825666368008,-0.36358204483986,-116.50567626953125,0.03430511057377,-0.02849863469601,9.49667930603027,-0.60499531030655,3.63104820251465,0.35608905553818
246,1987444881,-0.12925422191620,-0.36344841122627,-116.50574493408203,0.03374984487891,-0.04419094324112,9.50380229949951,-0.74356842041016,3.55302739143372,0.31205824017525
247,1987453214,-0.12898704409599,-0.36280551552773,-116.50639343261719,0.02416983619332,-0.03082758560777,9.52367019653320,-0.59367388486862,3.62536191940308,0.24366819858551
248,1987461547,-0.12928758561611,-0.36311441659927,-116.50682830810547,0.03296351432800,-0.04290596023202,9.49834251403809,-0.66147488355637,3.50149178504944,0.26828351616859
249,1987469880,-0.12927578389645,-0.36271440982819,-116.50621032714844,0.03326262533665,-0.03866464644670,9.50060558319092,-0.62323266267776,3.59482932090759,0.39507389068604
250,1987478213,-0.12924911081791,-0.36269381642342,-116.50633239746094,0.01560596190393,-0.01929151825607,9.50248336791992,-0.62149107456207,3.54055356979370,0.30936878919601
251,1987486546,-0.12908490002155,-0.36223611235619,-116.50682830810547,0.03575656563044,-0.01037323661149,9.49244499206543,-0.60642975568771,3.60366678237915,0.26080414652824
252,1987494879,-0.12912599742413,-0.36150950193405,-116.50695037841797,0.03558360040188,-0.02623275481164,9.51723861694336,-0.62868857383728,3.62310767173767,0.30731958150864
253,1987503212,-0.12888389825821,-0.36199948191643,-116.50762176513672,0.01320240646601,-0.03431723266840,9.51594352722168,-0.59687572717667,3.49011921882629,0.24028715491295
254,1987511545,-0.12892305850983,-0.36253440380096,-116.50743865966797,0.02099644206464,-0.02294357866049,9.52824211120605,-0.62845808267593,3.47377729415894,0.34148901700974
255,1987519878,-0.12823121249676,-0.36265495419502,-116.50730895996094,0.02906439267099,-0.03961923718452,9.50709247589111,-0.54262477159500,3.53333044052124,0.33851772546768
256,1987528211,-0.12900620698929,-0.36369988322258,-116.50695037841797,0.00590394157916,-0.02412418089807,9.50954151153564,-0.71764689683914,3.41166257858276,0.36694955825806
257,1987536544,-0.12890481948853,-0.36389440298080,-116.50779724121094,0.03480793163180,-0.04100750759244,9.49697780609131,-0.61342257261276,3.52413463592529,0.21851505339146
258,1987544877,-0.12908121943474,-0.36358594894409,-116.50765991210938,0.03888215124607,-0.03032857179642,9.52057838439941,-0.64597809314728,3.57497835159302,0.33605870604515
259,1987553210,-0.13067470490932,-0.36408478021622,-116.50828552246094,0.01635384000838,-0.04183673486114,9.50075817108154,-0.81615924835205,3.48773694038391,0.24510264396667
260,1987561543,-0.13063940405846,-0.36488673090935,-116.50879669189453,0.03131789714098,-0.06577882915735,9.52709007263184,-0.62079942226410,3.44137525558472,0.26733580231667
261,1987569876,-0.12868556380272,-0.36460784077644,-116.50812530517578,0.06608425080776,-0.03991707041860,9.50926780700684,-0.39024570584297,3.58174109458923,0.40114456415176
262,1987578209,-0.13009384274483,-0.36329895257950,-116.50801849365234,0.01240892708302,0.07579483091831,9.54969024658203,-0.79295271635056,3.69316267967224,0.33900439739227
263,1987586542,-0.13254803419113,-0.36634320020676,-116.50783538818359,-0.01648450270295,-0.18329925835133,9.48689937591553,-0.91938447952271,3.18269634246826,0.34061810374260
264,1987594875,-0.12345408648252,-0.36350542306900,-116.50848388671875,0.15043511986732,0.09855379164219,9.50921249389648,0.46582040190697,3.87832736968994,0.24976435303688
265,1987603208,-0.13782212138176,-0.36643585562706,-116.50797271728516,-0.20398044586182,-0.09864603728056,9.59464836120605,-2.34876108169556,3.19593882560730,0.38108852505684
266,1987611541,-0.11974519491196,-0.36194771528244,-116.51024627685547,0.33559504151344,0.11603743582964,9.36565876007080,1.54323208332062,4.07645416259766,0.05868221819401
267,1987619874,-0.13763397932053,-0.37136113643646,-116.50539398193359,-0.22091862559319,-0.51984727382660,9.60590457916260,-2.76860404014587,2.41665148735046,0.89793252944946
268,1987628207,-0.13148394227028,-0.35705706477165,-116.51306915283203,-0.12474636733532,0.80294948816299,9.70361328125000,0.10811767727137,5.25483703613281,-0.58655315637589
269,1987636540,-0.11980111896992,-0.36366984248161,-116.50708770751953,0.62923276424408,-0.29215082526207,9.12163543701172,0.78049135208130,2.75360703468323,1.03617262840271
270,1987644873,-0.11981504410505,-0.37074825167656,-116.50376892089844,-0.18215066194534,-0.73315167427063,9.55803012847900,-0.62305337190628,2.68718910217285,0.73051792383194
271,1987653206,-0.13608315587044,-0.36726701259613,-116.50795745849609,-0.23887698352337,-0.23111459612846,9.61098384857178,-2.58108258247375,3.96718430519104,-0.18277038633823
272,1987661539,-0.14299125969410,-0.36508548259735,-116.51239013671875,0.03616806864738,0.22666172683239,9.53493213653564,-1.45648944377899,3.79997396469116,-0.21158637106419
273,1987669872,-0.14599078893661,-0.36511853337288,-116.51486968994141,-0.05182025581598,0.21332864463329,9.66026687622070,-0.98739027976990,3.54536843299866,0.02264298312366
274,1987678205,-0.14761550724506,-0.36517336964607,-116.51565551757812,0.02265097759664,0.01997883990407,9.53097724914551,-0.81915599107742,3.53079414367676,0.23193690180779
275,1987686538,-0.14587514102459,-0.36632335186005,-116.51396179199219,0.09981984645128,-0.24827496707439,9.50072956085205,-0.41542452573776,3.40920376777649,0.52465641498566
276,1987694871,-0.14304329454899,-0.36805310845375,-116.51244354248047,0.25416743755341,-0.41508516669273,9.31671428680420,-0.28376731276512,3.32964587211609,0.50895488262177
277,1987703204,-0.13181343674660,-0.36887893080711,-116.51116943359375,0.35464066267014,-0.12806203961372,9.27873134613037,0.72362780570984,3.44859838485718,0.47391459345818
278,1987711537,-0.11578998714685,-0.36675348877907,-116.50976562500000,0.09851589053869,0.60280662775040,9.39103698730469,1.29994785785675,3.79113674163818,0.49840173125267
279,1987719870,-0.11400670558214,-0.36175340414047,-116.51168060302734,-0.56258970499039,1.06521201133728,9.81790924072266,-0.41247877478600,4.14909601211548,0.09154527634382
280,1987728203,-0.13810119032860,-0.36251923441887,-116.51462554931641,-0.37357047200203,-0.46787220239639,9.82365131378174,-3.51743626594543,3.44611382484436,-0.02393650263548
281,1987736536,-0.13939243555069,-0.36877709627151,-116.51319122314453,0.81991463899612,-1.37535119056702,9.12408256530762,-0.77950519323349,2.79612660408020,0.49230557680130
282,1987744869,-0.11077579855919,-0.36474308371544,-116.51255035400391,0.20142380893230,1.07021605968475,9.36049175262451,2.80998396873474,4.02094841003418,0.40093964338303
283,1987753202,-0.13267780840397,-0.36209508776665,-116.51583099365234,-0.99955594539642,0.42574092745781,10.01856708526611,-3.25691413879395,3.86664772033691,-0.07214249670506
284,1987761535,-0.13583242893219,-0.36866745352745,-116.51315307617188,1.05462229251862,-1.67081809043884,8.94809532165527,-0.99919849634171,2.74784398078918,0.64809137582779
285,1987769868,-0.10838708281517,-0.36250197887421,-116.51541900634766,-0.52630019187927,2.00615930557251,9.94657707214355,2.66503286361694,4.28830957412720,0.05061373114586
286,1987778201,-0.15092281997204,-0.36633720993996,-116.51458740234375,-0.02081525139511,-1.70836365222931,9.33223342895508,-5.72648477554321,3.07698678970337,0.43316236138344
287,1987786534,-0.10315101593733,-0.36337095499039,-116.51354980468750,0.45712444186211,1.11209404468536,9.46262073516846,5.10824632644653,3.90363454818726,0.44635358452797
288,1987794867,-0.15103077888489,-0.36502262949944,-116.51417541503906,-0.58857733011246,-0.89491093158722,9.82424163818359,-6.37093973159790,3.33909749984741,0.25063532590866
289,1987803200,-0.09658160805702,-0.36281502246857,-116.51311492919922,0.67704665660858,0.65620940923691,9.06506824493408,5.91040849685669,3.81290960311890,0.44786500930786
290,1987811533,-0.15653307735920,-0.36465367674828,-116.51251220703125,-0.40950566530228,-0.78354173898697,9.96945476531982,-7.81842470169067,3.31458425521851,0.39504832029343
291,1987819866,-0.09166861325502,-0.36086559295654,-116.51557159423828,0.12596511840820,1.17335641384125,9.23285102844238,7.15674495697021,4.00468301773071,-0.04278857633471
292,1987828199,-0.17331348359585,-0.36645644903183,-116.51055908203125,0.33977666497231,-1.67303144931793,9.27924728393555,-10.41845130920410,2.86318540573120,0.92733776569366
293,1987836532,-0.08606621623039,-0.36006063222885,-116.51887512207031,-0.74585527181625,2.04158949851990,10.61058044433594,9.83937644958496,4.31822729110718,-0.67738133668900
294,1987844865,-0.15690550208092,-0.36541348695755,-116.50991821289062,1.21330451965332,-2.51508355140686,7.22382068634033,-9.11832046508789,2.89379358291626,1.40086793899536
295,1987853198,-0.11593365669250,-0.36296123266220,-116.51800537109375,-1.16281974315643,2.18369698524475,12.33855056762695,4.28436517715454,3.84446644783020,-0.65138280391693
296,1987861531,-0.11031652987003,-0.36219555139542,-116.51515960693359,0.57334315776825,-0.96303009986877,7.28541994094849,0.05222742259502,3.62720608711243,0.66632872819901
297,1987869864,-0.16320446133614,-0.36684113740921,-116.51116943359375,0.36162814497948,-0.74193108081818,10.14175987243652,-6.96793127059937,2.99059057235718,0.80041939020157
298,1987878197,-0.08629487454891,-0.36104503273964,-116.52070617675781,-1.02491724491119,1.91239202022552,10.78306293487549,8.59681701660156,4.23460960388184,-0.82795464992523
299,1987886530,-0.13847652077675,-0.36387813091278,-116.51206970214844,1.00899291038513,-1.86737918853760,7.01360750198364,-6.87976694107056,3.20557069778442,1.35586416721344
300,1987894863,-0.15034344792366,-0.36626312136650,-116.51335906982422,-0.15428857505322,0.45594197511673,11.44698238372803,-2.05030441284180,3.25106120109558,0.17030905187130
301,1987903196,-0.08420843631029,-0.36120992898941,-116.51992797851562,-0.75039964914322,1.22201931476593,9.66840171813965,7.30602455139160,4.15519237518311,-0.46624305844307
302,1987911529,-0.14691522717476,-0.36491128802299,-116.51095581054688,1.04581296443939,-1.82645392417908,7.38049221038818,-8.14249610900879,3.09163808822632,1.40445387363434
303,1987919862,-0.14681762456894,-0.36664035916328,-116.51403808593750,-0.25436758995056,0.68017834424973,11.59153079986572,-0.61588150262833,3.34117197990417,-0.05072898790240
304,1987928195,-0.08650145679712,-0.36164495348930,-116.52092742919922,-0.74769538640976,1.07980191707611,9.61346149444580,6.60898590087891,4.13846731185913,-0.48906549811363
305,1987936528,-0.14234566688538,-0.36397001147270,-116.51197814941406,0.98127454519272,-1.68581759929657,7.30884838104248,-7.31989669799805,3.26640462875366,1.39180088043213
306,1987944861,-0.15281276404858,-0.36681586503983,-116.51297760009766,0.01546228490770,0.25581592321396,11.17430305480957,-1.88168573379517,3.19504284858704,0.19763942062855
307,1987953194,-0.09285037964582,-0.36316671967506,-116.52130889892578,-0.95559591054916,1.42360603809357,10.44001770019531,6.56408405303955,3.98875188827515,-0.67899507284164
308,1987961527,-0.12519963085651,-0.36251956224442,-116.51474761962891,0.73651373386383,-1.40573656558990,7.10720491409302,-4.50117731094360,3.61401486396790,1.11562800407410
309,1987969860,-0.16053198277950,-0.36648756265640,-116.51173400878906,0.53663986921310,-0.50808101892471,10.09654426574707,-4.86284971237183,3.07012200355530,0.68010920286179
310,1987978193,-0.11034768074751,-0.36372390389442,-116.51951599121094,-0.98398286104202,1.66445934772491,11.61364459991455,5.39205169677734,3.87264132499695,-0.59895038604736
311,1987986526,-0.10092148929834,-0.35951703786850,-116.51789093017578,0.15051634609699,-0.58846282958984,7.56588602066040,0.50821202993393,4.05155706405640,0.51558887958527
312,1987994859,-0.15514831244946,-0.36340719461441,-116.51050567626953,0.93912178277969,-1.28713262081146,8.50297737121582,-7.12648344039917,3.06712579727173,1.21355152130127
313,1988003192,-0.14024655520916,-0.36403974890709,-116.51522827148438,-0.50134527683258,1.09544074535370,11.94710445404053,1.15778899192810,3.47436594963074,-0.24772804975510
314,1988011525,-0.09135933220387,-0.35919594764709,-116.52036285400391,-0.60871493816376,0.66137486696243,9.26640605926514,5.23959684371948,4.12004995346069,-0.28709712624550
315,1988019858,-0.13140639662743,-0.36020651459694,-116.51223754882812,0.74425458908081,-1.32355988025665,7.38016319274902,-5.42454338073730,3.42472553253174,1.29713034629822
316,1988028191,-0.16274331510067,-0.36436212062836,-116.50965881347656,0.49286603927612,-0.35275295376778,10.44104576110840,-4.38363361358643,3.03784823417664,0.64570927619934
317,1988036524,-0.11220803111792,-0.36250811815262,-116.51821899414062,-0.93336373567581,1.44933378696442,11.25308227539062,5.43198442459106,3.77302765846252,-0.70814394950867
318,1988044857,-0.10415978729725,-0.35976070165634,-116.51700592041016,-0.08561505377293,-0.18997488915920,8.08268451690674,0.34328198432922,3.86590504646301,0.47214719653130
319,1988053190,-0.15396742522717,-0.36325126886368,-116.50935363769531,1.06124854087830,-1.48021674156189,7.93898963928223,-6.59644746780396,3.12742185592651,1.23821783065796
320,1988061523,-0.15512259304523,-0.36523416638374,-116.51298522949219,-0.23376426100731,0.75058984756470,11.61862754821777,-0.76649320125580,3.29916501045227,-0.11778707057238
321,1988069856,-0.10456507652998,-0.36089193820953,-116.51939392089844,-0.79814314842224,1.07574534416199,10.31299304962158,5.43792724609375,4.07209968566895,-0.44641765952110
322,1988078189,-0.11679175496101,-0.35964202880859,-116.51480865478516,0.34965777397156,-0.88020956516266,7.26961374282837,-2.08805966377258,3.68552994728088,0.87318933010101
323,1988086522,-0.16852425038815,-0.36355397105217,-116.50846862792969,0.82812768220901,-0.89764750003815,9.39871788024902,-6.82841014862061,3.07611608505249,1.08084392547607
324,1988094855,-0.13978309929371,-0.36312779784203,-116.51462554931641,-0.46628713607788,0.94335973262787,11.51389408111572,2.82015299797058,3.58993768692017,-0.41847258806229
325,1988103188,-0.10062821954489,-0.35963690280914,-116.51894378662109,-0.79472291469574,0.90569686889648,9.64783000946045,4.06861639022827,3.96905374526978,-0.19644838571548
326,1988111521,-0.12983247637749,-0.35971200466156,-116.51258850097656,0.80594289302826,-1.36773347854614,7.23386955261230,-4.12375116348267,3.52454447746277,1.09024429321289
327,1988119854,-0.16402903199196,-0.36477527022362,-116.50947570800781,0.61449825763702,-0.54704332351685,9.90387344360352,-4.72566032409668,2.94005322456360,0.69432508945465
328,1988128187,-0.13125377893448,-0.36432677507401,-116.51551818847656,-0.70423620939255,1.27139759063721,11.81398487091064,3.30408287048340,3.59344696998596,-0.40412864089012
329,1988136520,-0.09329240024090,-0.35990321636200,-116.51892852783203,-0.42062160372734,0.22600324451923,8.49748516082764,3.92682862281799,4.07982254028320,-0.08675540983677
330,1988144853,-0.14019556343555,-0.36226797103882,-116.51073455810547,0.79673922061920,-1.24463438987732,7.67632389068604,-6.24567317962646,3.25028014183044,1.31125688552856
331,1988153186,-0.16265115141869,-0.36610648036003,-116.50902557373047,0.47216480970383,-0.31017425656319,10.42945861816406,-3.31877231597900,3.08697628974915,0.52424651384354
332,1988161519,-0.11676219105721,-0.36412009596825,-116.51747894287109,-0.95518571138382,1.43412637710571,11.31357192993164,4.87574720382690,3.77817678451538,-0.69234007596970
333,1988169852,-0.10333002358675,-0.36063557863235,-116.51626586914062,-0.12303892523050,-0.14205835759640,8.18285655975342,0.98637855052948,3.96526241302490,0.46771594882011
334,1988178185,-0.14814849197865,-0.36323052644730,-116.51007843017578,0.96409392356873,-1.40887165069580,7.73834276199341,-5.99773931503296,3.22562599182129,1.06501424312592
335,1988186518,-0.16163025796413,-0.36705914139748,-116.51113128662109,-0.02574941329658,0.44800266623497,11.41780948638916,-2.24320483207703,3.08946084976196,0.19300325214863
336,1988194851,-0.10741910338402,-0.36270445585251,-116.51956176757812,-0.84385365247726,1.17393624782562,10.55885314941406,5.87526512145996,4.06131649017334,-0.68439966440201
337,1988203184,-0.11182042211294,-0.36017587780952,-116.51622772216797,0.13189826905727,-0.54454272985458,7.62995815277100,-1.15052735805511,3.84981942176819,0.72093820571899
338,1988211517,-0.16455337405205,-0.36392447352409,-116.50794982910156,0.99311089515686,-1.20187580585480,8.80708885192871,-6.94621038436890,3.08587551116943,1.32164359092712
339,1988219850,-0.14309644699097,-0.36542165279388,-116.51275634765625,-0.40897405147552,0.92375224828720,11.54868888854980,1.94634890556335,3.37042331695557,-0.25807622075081
340,1988228183,-0.09996937215328,-0.36146676540375,-116.51759338378906,-0.80435407161713,0.96443533897400,9.81252956390381,4.54691171646118,4.01303434371948,-0.25712850689888
341,1988236516,-0.12715522944927,-0.36022230982780,-116.51096343994141,0.77999699115753,-1.37035715579987,7.08587646484375,-3.88241362571716,3.69641613960266,1.11765158176422
342,1988244849,-0.16576503217220,-0.36575743556023,-116.50814056396484,0.52656650543213,-0.43828523159027,10.14788722991943,-5.25672006607056,2.87207293510437,0.65879815816879
343,1988253182,-0.12387473881245,-0.36410859227180,-116.51545715332031,-0.80757105350494,1.36335206031799,11.61998081207275,4.39709329605103,3.74743914604187,-0.55776274204254
344,1988261515,-0.09867390245199,-0.35946577787399,-116.51586914062500,-0.20407044887543,-0.07734985649586,8.03868389129639,2.39951586723328,4.09502506256104,0.27888783812523
345,1988269848,-0.15666233003139,-0.36188766360283,-116.50733184814453,0.96093672513962,-1.40917646884918,8.11565780639648,-7.57867574691772,3.25490331649780,1.34510588645935
346,1988278181,-0.15490868687630,-0.36405977606773,-116.50994110107422,-0.10458905994892,0.48699033260345,11.36411952972412,-0.41516834497452,3.27726435661316,0.00934919528663
347,1988286514,-0.10095755755901,-0.36020582914352,-116.51683807373047,-0.92542690038681,1.25700533390045,10.23652267456055,5.84350252151489,4.01236724853516,-0.50622689723969
348,1988294847,-0.12849561870098,-0.36012104153633,-116.51020050048828,0.66499501466751,-1.21285176277161,7.20270109176636,-3.92272996902466,3.54567599296570,1.13122701644897
349,1988303180,-0.16766808927059,-0.36487829685211,-116.50743103027344,0.67907392978668,-0.68586772680283,9.79267597198486,-5.32441902160645,2.97614383697510,0.65106266736984
350,1988311513,-0.12469460070133,-0.36330863833427,-116.51522827148438,-0.96021932363510,1.59279274940491,11.78313922882080,4.52672672271729,3.72794675827026,-0.61206495761871
351,1988319846,-0.10531426221132,-0.35931599140167,-116.51486968994141,-0.02924785949290,-0.27800861001015,7.84038305282593,1.69970929622650,4.02742862701416,0.36377337574959
352,1988328179,-0.16108922660351,-0.36276614665985,-116.50637817382812,0.99230891466141,-1.42624497413635,8.16382312774658,-7.31144332885742,3.12001919746399,1.34454262256622
353,1988336512,-0.15076963603497,-0.36418822407722,-116.51055908203125,-0.44902244210243,1.02286195755005,11.92417716979980,0.61010545492172,3.37846660614014,-0.18192511796951
354,1988344845,-0.09744725376368,-0.35952892899513,-116.51622772216797,-0.64549088478088,0.76001095771790,9.28761577606201,5.77104139328003,4.09909772872925,-0.34749555587769
355,1988353178,-0.14351429045200,-0.36168161034584,-116.50809478759766,0.85721200704575,-1.46785140037537,7.30937194824219,-6.14850473403931,3.28704881668091,1.29469704627991
356,1988361511,-0.16693726181984,-0.36572837829590,-116.50717926025391,0.21490472555161,0.03804650157690,11.00875186920166,-3.43477916717529,3.05162882804871,0.43180480599403
357,1988369844,-0.10359018296003,-0.36209771037102,-116.51679992675781,-0.95891457796097,1.43442797660828,10.67393970489502,6.96945571899414,3.98706102371216,-0.83186078071594
358,1988378177,-0.12515497207642,-0.36145463585854,-116.51066589355469,0.50641113519669,-1.04022848606110,7.27075052261353,-3.20824670791626,3.61183786392212,1.05546009540558
359,1988386510,-0.17209699749947,-0.36643862724304,-116.50679016113281,0.73162668943405,-0.87934064865112,9.74126720428467,-6.25398445129395,2.94924855232239,0.78556293249130
360,1988394843,-0.11947912722826,-0.36350893974304,-116.51634979248047,-0.98716855049133,1.66811859607697,11.58005523681641,5.68251752853394,3.89018678665161,-0.82883810997009
361,1988403176,-0.11251775175333,-0.36031463742256,-116.51422119140625,0.07389452308416,-0.40864005684853,7.74555063247681,0.21098443865776,3.93052983283997,0.57680690288544
362,1988411509,-0.17064471542835,-0.36458969116211,-116.50691986083984,1.05117487907410,-1.48778951168060,8.57450866699219,-7.59499216079712,3.02194142341614,1.19948887825012
363,1988419842,-0.13698816299438,-0.36437937617302,-116.51465606689453,-0.83658647537231,1.51655161380768,12.03373336791992,3.40861439704895,3.57564496994019,-0.60735195875168
364,1988428175,-0.10547860711813,-0.36017882823944,-116.51591491699219,-0.29873234033585,0.21430133283138,8.49376201629639,3.15603184700012,4.04131174087524,0.17932523787022
365,1988436508,-0.16229526698589,-0.36425322294235,-116.50740051269531,1.13878595829010,-1.78474819660187,7.64357614517212,-7.43728446960449,3.05741763114929,1.34169924259186
366,1988444841,-0.15067473053932,-0.36606770753860,-116.51272583007812,-0.59947264194489,1.18794894218445,12.07751560211182,0.76612180471420,3.32060408592224,-0.31773179769516
367,1988453174,-0.10233118385077,-0.36108747124672,-116.51779937744141,-0.58510029315948,0.71458297967911,9.18713665008545,5.17287111282349,4.14704656600952,-0.28435638546944
368,1988461507,-0.15354208648205,-0.36316066980362,-116.50976562500000,1.12617850303650,-1.84368324279785,7.10375165939331,-6.76381111145020,3.28530812263489,1.28783273696899
369,1988469840,-0.16260160505772,-0.36603096127510,-116.51154327392578,-0.29166173934937,0.77481746673584,11.85498237609863,-1.71445047855377,3.20352149009705,0.10732365399599
370,1988478173,-0.10180136561394,-0.36121690273285,-116.51806640625000,-0.74258351325989,1.07735252380371,9.84275913238525,6.66759157180786,4.11684894561768,-0.46186316013336
371,1988486506,-0.14462649822235,-0.36272633075714,-116.51058197021484,0.98834007978439,-1.72953569889069,6.93134021759033,-5.75919389724731,3.36527490615845,1.22103059291840
372,1988494839,-0.17015281319618,-0.36658042669296,-116.51004791259766,-0.02021640539169,0.36495292186737,11.44539833068848,-3.68695163726807,3.07460498809814,0.38211318850517
373,1988503172,-0.10318475961685,-0.36089447140694,-116.51824951171875,-0.87794822454453,1.31091094017029,10.33720684051514,7.40428113937378,4.23195791244507,-0.66057831048965
374,1988511505,-0.13747714459896,-0.36153849959373,-116.51168060302734,0.83663439750671,-1.55971169471741,6.88799953460693,-4.73408746719360,3.45815253257751,1.11580741405487
375,1988519838,-0.17379240691662,-0.36677682399750,-116.50961303710938,0.19972996413708,0.01008824445307,11.03458881378174,-4.98212289810181,2.91870403289795,0.56652283668518
376,1988528171,-0.10485940426588,-0.36112955212593,-116.51790618896484,-0.93299913406372,1.47891747951508,10.69929981231689,7.64313459396362,4.21684598922729,-0.66782718896866
377,1988536504,-0.13300374150276,-0.36129385232925,-116.51154327392578,0.73051792383194,-1.40837275981903,6.93024921417236,-3.99924063682556,3.52554345130920,1.08422493934631
378,1988544837,-0.17567697167397,-0.36575359106064,-116.50857543945312,0.33798503875732,-0.24710208177567,10.71677398681641,-5.74244260787964,3.00175786018372,0.68121057748795
379,1988553170,-0.10610540211201,-0.36120253801346,-116.51809692382812,-0.96474534273148,1.56383717060089,10.88103580474854,7.71587848663330,4.09648513793945,-0.82082104682922
380,1988561503,-0.12955893576145,-0.36143127083778,-116.51180267333984,0.65232330560684,-1.27987468242645,6.99828433990479,-3.43355011940002,3.50915050506592,1.08238089084625
381,1988569836,-0.17570984363556,-0.36574685573578,-116.50783538818359,0.43088695406914,-0.40900388360023,10.49157142639160,-6.16136312484741,3.02890872955322,0.79311919212341
382,1988578169,-0.10707899183035,-0.36168116331100,-116.51709747314453,-0.98171991109848,1.60858416557312,11.03395366668701,7.60489225387573,4.02806901931763,-0.78465372323990
383,1988586502,-0.12863825261593,-0.36117517948151,-116.51203155517578,0.58213621377945,-1.20224726200104,7.04943752288818,-3.20873379707336,3.60712456703186,0.92779880762100
384,1988594835,-0.17706985771656,-0.36639964580536,-116.50802612304688,0.47873029112816,-0.52190792560577,10.33889293670654,-6.43338632583618,2.90864992141724,0.81028068065643
385,1988603168,-0.10985411703587,-0.36280474066734,-116.51871490478516,-0.98769271373749,1.63402009010315,11.08723545074463,7.43197011947632,3.98326945304871,-0.96016252040863
386,1988611501,-0.12775108218193,-0.36241167783737,-116.51428222656250,0.51666355133057,-1.06376552581787,7.14427614212036,-2.76845097541809,3.58281707763672,0.85664254426956
387,1988619834,-0.17793022096157,-0.36732095479965,-116.51029968261719,0.56770193576813,-0.70241707563400,10.11923313140869,-6.64375686645508,2.95762467384338,0.79952275753021
388,1988628167,-0.11297303438187,-0.36428123712540,-116.51980590820312,-1.00323092937469,1.67050123214722,11.24996185302734,7.16358423233032,3.90527462959290,-0.82092338800430
389,1988636500,-0.12424092739820,-0.36247235536575,-116.51538085937500,0.41438788175583,-0.92258584499359,7.27579069137573,-1.97504973411560,3.76357650756836,0.85011088848114
390,1988644833,-0.17775250971317,-0.36659976840019,-116.50990295410156,0.70031601190567,-0.90159910917282,9.77372169494629,-7.04116249084473,3.04138350486755,0.98304897546768
391,1988653166,-0.11619496345520,-0.36357012391090,-116.51954650878906,-1.00763976573944,1.68091714382172,11.47494125366211,6.75437211990356,3.91464948654175,-0.83667618036270
392,1988661499,-0.11879660189152,-0.36163473129272,-116.51645660400391,0.26696684956551,-0.69955563545227,7.45565843582153,-0.93439441919327,3.76793074607849,0.69524717330933
393,1988669832,-0.17629185318947,-0.36646181344986,-116.51077270507812,0.86542445421219,-1.17229330539703,9.35509967803955,-7.52009725570679,2.96676945686340,1.00310480594635
394,1988678165,-0.12352258712053,-0.36350569128990,-116.52084350585938,-0.96880131959915,1.67015576362610,11.72592449188232,5.70049905776978,3.89490056037903,-0.88452357053757
395,1988686498,-0.11356618255377,-0.36027699708939,-116.51963806152344,0.03873982280493,-0.34014531970024,7.75385904312134,0.56917393207550,3.93480753898621,0.46502637863159
396,1988694831,-0.17329263687134,-0.36452856659889,-116.51284027099609,1.00090003013611,-1.46919548511505,8.73972320556641,-7.78540849685669,3.02450299263000,1.13962852954865
397,1988703164,-0.13285048305988,-0.36382317543030,-116.52098083496094,-0.86521518230438,1.55286681652069,11.90419769287109,4.22058486938477,3.63496732711792,-0.65888774394989
398,1988711497,-0.10794369131327,-0.36032736301422,-116.52208709716797,-0.18744474649429,0.04354309663177,8.25539684295654,2.36414265632629,3.95714354515076,0.19628188014030
399,1988719830,-0.16797989606857,-0.36437472701073,-116.51372528076172,1.12640368938446,-1.67977654933929,8.08089256286621,-7.82344484329224,3.06128501892090,1.32358992099762
400,1988728163,-0.14334966242313,-0.36431828141212,-116.51984405517578,-0.68852263689041,1.35876560211182,12.04302024841309,2.32654142379761,3.54521536827087,-0.41454079747200
401,1988736496,-0.10309228301048,-0.35936719179153,-116.52191925048828,-0.44522994756699,0.51182371377945,8.87086772918701,4.20485830307007,4.14287233352661,0.07294934242964
402,1988744829,-0.15814313292503,-0.36257085204124,-116.51391601562500,1.14468574523926,-1.81170725822449,7.41431140899658,-7.22630071640015,3.14965486526489,1.28601408004761
403,1988753162,-0.15446029603481,-0.36504808068275,-116.51790618896484,-0.42597347497940,0.99937659502029,11.91371822357178,-0.18620269000530,3.25293087959290,-0.15984562039375
404,1988761495,-0.10144621133804,-0.36023223400116,-116.52379608154297,-0.69119530916214,0.91622656583786,9.57036685943604,5.73314380645752,4.11652755737305,-0.38183137774467
405,1988769828,-0.14816823601723,-0.36203044652939,-116.51596832275391,1.05170333385468,-1.78200078010559,7.02507162094116,-6.22512912750244,3.33045220375061,1.25882434844971
406,1988778161,-0.16483551263809,-0.36582505702972,-116.51754760742188,-0.13098321855068,0.52184081077576,11.58099842071533,-2.62643218040466,3.08259606361389,0.13001786172390
407,1988786494,-0.10331299155951,-0.36064296960831,-116.52490234375000,-0.86092543601990,1.22078585624695,10.22180938720703,6.75224590301514,4.17104864120483,-0.55906915664673
408,1988794827,-0.13931545615196,-0.36124244332314,-116.51754760742188,0.88685351610184,-1.61629259586334,6.81751108169556,-4.94030809402466,3.46445393562317,1.21009337902069
409,1988803160,-0.17297087609768,-0.36564457416534,-116.51628112792969,0.14909654855728,0.08766368031502,11.11581611633301,-4.66359663009644,3.01799702644348,0.46940645575523
410,1988811493,-0.10681802779436,-0.36084696650505,-116.52556610107422,-0.94288051128387,1.45497620105743,10.69264984130859,7.30825376510620,4.11720705032349,-0.78788113594055
411,1988819826,-0.13095423579216,-0.36128509044647,-116.51958465576172,0.70190900564194,-1.36762380599976,6.89737701416016,-3.51715445518494,3.49373030662537,1.03901576995850
412,1988828159,-0.17736305296421,-0.36635056138039,-116.51612854003906,0.40194162726402,-0.30456539988518,10.63005638122559,-6.19153690338135,2.92719459533691,0.74127596616745
413,1988836492,-0.10989835113287,-0.36130252480507,-116.52623748779297,-0.97114694118500,1.56818306446075,11.02550792694092,7.46383428573608,4.15637016296387,-0.89187479019165
414,1988844825,-0.12556505203247,-0.36005347967148,-116.52153778076172,0.55876660346985,-1.14200663566589,7.02719783782959,-2.50180625915527,3.68632364273071,0.89242565631866
415,1988853158,-0.17917396128178,-0.36583766341209,-116.51645660400391,0.53804248571396,-0.60117477178574,10.27981567382812,-7.05494308471680,2.85168433189392,0.92928457260132
416,1988861491,-0.11179654300213,-0.36071595549583,-116.52640533447266,-0.97585219144821,1.63658547401428,11.25044727325439,7.45440864562988,4.15478277206421,-0.87822252511978
417,1988869824,-0.12294695526361,-0.35966923832893,-116.52279663085938,0.47305792570114,-0.97227996587753,7.15660142898560,-1.96139729022980,3.67336320877075,0.75344276428223
418,1988878157,-0.17937496304512,-0.36500942707062,-116.51747131347656,0.61167818307877,-0.74877756834030,10.04291439056396,-7.39138555526733,2.89435768127441,0.96514445543289
419,1988886490,-0.11274908483028,-0.36064237356186,-116.52748107910156,-1.00479900836945,1.69569611549377,11.31950283050537,7.36268424987793,4.07571172714233,-0.87722355127335
420,1988894823,-0.12218222767115,-0.35916870832443,-116.52400970458984,0.48030179738998,-0.99073362350464,7.13232517242432,-1.75510013103485,3.71332120895386,0.73899626731873
421,1988903156,-0.17816472053528,-0.36302658915520,-116.51889038085938,0.62012088298798,-0.75542038679123,10.06137847900391,-7.33841609954834,3.08313465118408,0.93246072530746
422,1988911489,-0.11059286445379,-0.35830795764923,-116.52999877929688,-0.98809319734573,1.69127261638641,11.27991580963135,7.47589921951294,4.10683298110962,-1.00357854366302
423,1988919822,-0.12427525222301,-0.35775244235992,-116.52654266357422,0.50306224822998,-1.05977988243103,7.10044670104980,-2.26566863059998,3.61309242248535,0.73548716306686
424,1988928155,-0.17690958082676,-0.36307674646378,-116.52162170410156,0.54082745313644,-0.66467630863190,10.18521308898926,-6.93647623062134,2.89737987518311,0.91903877258301
425,1988936488,-0.10759633779526,-0.35808327794075,-116.53140258789062,-0.98925840854645,1.69732201099396,11.16738986968994,7.68455266952515,4.14973688125610,-0.85150688886642
426,1988944821,-0.12847681343555,-0.35764524340630,-116.52651214599609,0.59934347867966,-1.22876214981079,7.05599784851074,-3.12602543830872,3.58996319770813,0.91155952215195
427,1988953154,-0.17594005167484,-0.36261621117592,-116.52328491210938,0.42857882380486,-0.47061803936958,10.43859767913818,-6.31820011138916,2.95001745223999,0.70751649141312
428,1988961487,-0.10372250527143,-0.35709923505783,-116.53271484375000,-0.99438405036926,1.63812232017517,10.91190052032471,8.03429031372070,4.20365524291992,-0.80737364292145
429,1988969820,-0.13367490470409,-0.35724714398384,-116.52574920654297,0.75852698087692,-1.42129480838776,6.98686075210571,-4.21524524688721,3.52838683128357,1.15397250652313
430,1988978153,-0.17138940095901,-0.36162140965462,-116.52388763427734,0.23993588984013,-0.16366623342037,10.88531112670898,-5.14888381958008,3.01090216636658,0.55044990777969
431,1988986486,-0.09789822995663,-0.35741919279099,-116.53287506103516,-0.92218643426895,1.52452993392944,10.49113559722900,8.18715476989746,4.05573272705078,-0.75604259967804
432,1988994819,-0.13997435569763,-0.35981988906860,-116.52526855468750,0.88814228773117,-1.58736038208008,6.98755264282227,-5.66729021072388,3.24601507186890,1.23924219608307
433,1989003152,-0.16470883786678,-0.36339956521988,-116.52497100830078,-0.02080927602947,0.24218532443047,11.34479522705078,-3.59425401687622,3.11832833290100,0.35393753647804
434,1989011485,-0.09425395727158,-0.35789757966995,-116.53234863281250,-0.79622513055801,1.27548086643219,9.93361282348633,7.82461118698120,4.20006847381592,-0.55742985010147
435,1989019818,-0.14812372624874,-0.36079734563828,-116.52278137207031,1.01036095619202,-1.79518759250641,7.15055131912231,-7.08273410797119,3.19780993461609,1.46600544452667
436,1989028151,-0.15553112328053,-0.36378541588783,-116.52484893798828,-0.30488646030426,0.74245029687881,11.74876785278320,-1.51363480091095,3.17890596389771,0.08032624423504
437,1989036484,-0.09179726988077,-0.35826960206032,-116.53071594238281,-0.60088318586349,0.88054716587067,9.22220993041992,7.01806926727295,4.21118497848511,-0.38394454121590
438,1989044817,-0.15676951408386,-0.36292007565498,-116.52167510986328,1.10872066020966,-1.85551846027374,7.49522352218628,-8.41539192199707,2.97714304924011,1.40683639049530
439,1989053150,-0.14286136627197,-0.36270833015442,-116.52635955810547,-0.63868856430054,1.29771590232849,12.13203048706055,1.04029655456543,3.57531166076660,-0.24206732213497
440,1989061483,-0.09434190392494,-0.35772186517715,-116.53047180175781,-0.27462771534920,0.30461531877518,8.39482688903809,5.19523286819458,4.13580226898193,-0.16671024262905
441,1989069816,-0.16385728120804,-0.36300477385521,-116.52141571044922,1.04007089138031,-1.73615670204163,8.15014171600342,-8.96043777465820,2.91167283058167,1.40460789203644
442,1989078149,-0.12906648218632,-0.36141356825829,-116.52908325195312,-0.92462545633316,1.71484327316284,12.25269985198975,3.54472827911377,3.72968840599060,-0.59382760524750
443,1989086482,-0.10230883955956,-0.35771939158440,-116.52924346923828,0.12895113229752,-0.39748847484589,7.61716794967651,2.58550095558167,3.99231171607971,0.30124905705452
444,1989094815,-0.16866084933281,-0.36340665817261,-116.52184295654297,0.85649424791336,-1.32440638542175,8.98799896240234,-8.58142375946045,2.85214519500732,1.21424281597137
445,1989103148,-0.11416991800070,-0.36121833324432,-116.53012847900391,-1.13690316677094,2.00231313705444,12.05910205841064,5.90728235244751,3.81308841705322,-0.67392331361771
446,1989111481,-0.11555683612823,-0.35909360647202,-116.52606201171875,0.57751542329788,-1.13691830635071,6.95712184906006,-0.78721499443054,3.78998398780823,0.81968104839325
447,1989119814,-0.16854824125767,-0.36414280533791,-116.52276611328125,0.50002783536911,-0.69835090637207,10.03334808349609,-6.98255634307861,2.94084739685059,0.71484214067459
448,1989128147,-0.10281726717949,-0.35988295078278,-116.53188323974609,-1.14416110515594,1.99195337295532,11.37598896026611,7.25705051422119,4.05025053024292,-0.77228200435638
449,1989136480,-0.13527396321297,-0.36030277609825,-116.52462768554688,0.95973509550095,-1.75310564041138,6.69837236404419,-4.51513671875000,3.49590754508972,1.19042158126831
450,1989144813,-0.16283926367760,-0.36397221684456,-116.52386474609375,0.05003698915243,0.07319547235966,11.01480007171631,-3.93195176124573,3.09458398818970,0.41502746939659
451,1989153146,-0.09647055715322,-0.35903671383858,-116.53176116943359,-0.94308233261108,1.58595287799835,10.28348445892334,7.33327770233154,4.14253902435303,-0.62338638305664
452,1989161479,-0.15457589924335,-0.36254939436913,-116.52174377441406,1.18810427188873,-2.08053684234619,7.03744554519653,-7.58940744400024,3.11241126060486,1.52607047557831
453,1989169812,-0.14948204159737,-0.36419108510017,-116.52611541748047,-0.42865809798241,0.88281852006912,11.73029518127441,-0.01737925782800,3.35198116302490,-0.20449124276638
454,1989178145,-0.09658077359200,-0.35885474085808,-116.53031158447266,-0.55316919088364,0.86538785696030,9.09302711486816,5.72227096557617,4.17852687835693,-0.17193554341793
455,1989186478,-0.17059749364853,-0.36417278647423,-116.52074432373047,1.16920137405396,-1.98004984855652,7.82873439788818,-9.50217628479004,2.90757441520691,1.46754205226898
456,1989194811,-0.12955537438393,-0.36245235800743,-116.52939605712891,-0.88978880643845,1.57841134071350,12.03245353698730,4.29437971115112,3.74510884284973,-0.71326678991318
457,1989203144,-0.11803560703993,-0.36044126749039,-116.52673339843750,0.63512945175171,-0.82569414377213,7.26076507568359,0.75992304086685,3.78988194465637,0.64202076196671
458,1989211477,-0.15106666088104,-0.36109453439713,-116.52806854248047,-0.64315056800842,0.47356569766998,11.23611164093018,-4.58998155593872,3.45833182334900,0.15696403384209
459,1989219810,-0.13544057309628,-0.36292916536331,-116.52521514892578,1.02231001853943,-1.04433786869049,8.00254631042480,1.25143480300903,3.32734060287476,0.66238415241241
460,1989228143,-0.11432950943708,-0.35686266422272,-116.52960968017578,-0.93336874246597,1.76056718826294,10.47956943511963,1.90549409389496,4.26617908477783,-0.19975261390209
461,1989236476,-0.14946335554123,-0.36051613092422,-116.53040313720703,-0.04171685129404,-0.98442363739014,9.58390998840332,-4.84212827682495,3.11005496978760,0.22266454994678
462,1989244809,-0.14952525496483,-0.36606976389885,-116.52886199951172,0.60891741514206,-0.92710411548615,9.15207576751709,-0.63140374422073,2.87140703201294,0.50050216913223
463,1989253142,-0.13535682857037,-0.36679783463478,-116.52753448486328,0.28944730758667,-0.11299443244934,9.21406173706055,1.07592594623566,3.45940709114075,0.48039495944977
464,1989261475,-0.12635122239590,-0.36557978391647,-116.52585601806641,0.02115822955966,0.24038730561733,9.45270156860352,0.45800811052322,3.68181562423706,0.52580899000168
465,1989269808,-0.12394784390926,-0.36441701650620,-116.52549743652344,-0.01194943301380,0.09509445726871,9.49799537658691,-0.33589226007462,3.68824458122253,0.36387580633163
466,1989278141,-0.12579593062401,-0.36456176638603,-116.52502441406250,0.01139316614717,-0.10543866455555,9.52204036712646,-0.84730607271194,3.51993346214294,0.37886011600494
467,1989286474,-0.13240867853165,-0.36588966846466,-116.52513122558594,-0.07171772420406,-0.17776298522949,9.55214023590088,-1.41824722290039,3.38827657699585,0.30544975399971
468,1989294807,-0.14243452250957,-0.36397692561150,-116.52813720703125,-0.19329051673412,0.03859350830317,9.61406993865967,-1.82984244823456,3.76736712455750,-0.04601597040892
469,1989303140,-0.14814841747284,-0.35962632298470,-116.53122711181641,-0.18031103909016,0.50388824939728,9.73105239868164,-1.31345963478088,4.07110118865967,-0.04798826947808
470,1989311473,-0.13898795843124,-0.35522130131721,-116.53242492675781,0.15485565364361,0.65085893869400,9.52867031097412,0.47488784790039,4.06615686416626,0.17620028555393
471,1989319806,-0.12302666157484,-0.36021226644516,-116.52663421630859,0.34662839770317,-0.31453314423561,9.32244777679443,1.29367280006409,2.94702053070068,1.01235139369965
472,1989328139,-0.13225854933262,-0.36543470621109,-116.52438354492188,-0.23131816089153,-0.74237400293350,9.56717014312744,-1.73048484325409,2.90962338447571,0.59279018640518
473,1989336472,-0.14337630569935,-0.35615274310112,-116.53091430664062,-0.27128669619560,0.55765211582184,9.68992328643799,-1.96603322029114,4.66358375549316,-0.46112027764320
474,1989344805,-0.12614773213863,-0.35747402906418,-116.52941894531250,0.58509516716003,0.01861784420907,9.16803741455078,1.44415616989136,3.37918329238892,0.49988740682602
475,1989353138,-0.13792300224304,-0.36591181159019,-116.52584075927734,-0.34030932188034,-0.52012926340103,9.68563079833984,-2.03539657592773,2.53358078002930,0.75026649236679
476,1989361471,-0.13412080705166,-0.35273715853691,-116.53166198730469,0.03614226728678,0.53916156291962,9.58533191680908,-0.17208923399448,5.11969661712646,-0.36921635270119
477,1989369804,-0.13581188023090,-0.36481389403343,-116.52637481689453,0.26998320221901,-0.61467796564102,9.28998088836670,-0.82463747262955,2.09785699844360,0.95159453153610
478,1989378137,-0.13460481166840,-0.35520157217979,-116.53105926513672,-0.24988880753517,0.51331615447998,9.75704669952393,-0.48343029618263,4.69242572784424,-0.23930101096630
479,1989386470,-0.13927440345287,-0.36287555098534,-116.52742767333984,0.23394733667374,-0.58398193120956,9.29234313964844,-1.18290388584137,2.62607383728027,0.75559431314468
480,1989394803,-0.13112296164036,-0.35667392611504,-116.53000640869141,-0.06554706394672,0.44260790944099,9.65170192718506,0.35145297646523,4.28198289871216,0.01529170013964
481,1989403136,-0.14117658138275,-0.36044949293137,-116.52682495117188,0.01191702391952,-0.35944995284081,9.44905471801758,-1.82897162437439,3.09381532669067,0.70308512449265
482,1989411469,-0.13075210154057,-0.35882598161697,-116.52870941162109,0.10898650437593,0.06841658055782,9.47646903991699,0.62521785497665,3.73199415206909,0.09687303751707
483,1989419802,-0.13651154935360,-0.35853183269501,-116.52830505371094,-0.03485875949264,0.04977644234896,9.57020664215088,-1.31671249866486,3.58417415618896,0.36979269981384
484,1989428135,-0.13628552854061,-0.35861507058144,-116.52780914306641,0.03257756307721,-0.10439783334732,9.48443698883057,-0.59752893447876,3.52636337280273,0.38603216409683
485,1989436468,-0.13482578098774,-0.35921254754066,-116.52775573730469,0.03687177225947,-0.01061876397580,9.49194526672363,-0.44915845990181,3.47605681419373,0.32624852657318
486,1989444801,-0.13400436937809,-0.35864496231079,-116.52822113037109,0.02874891832471,0.00092982931528,9.48821735382080,-0.52687191963196,3.60456323623657,0.26500487327576
487,1989453134,-0.13533224165440,-0.35898807644844,-116.52841186523438,0.01828295551240,-0.03202940151095,9.51060009002686,-0.78555017709732,3.50730633735657,0.29771426320076
488,1989461467,-0.13601323962212,-0.35926342010498,-116.52854919433594,0.03307187929749,-0.02687148749828,9.50215816497803,-0.70550572872162,3.50466775894165,0.31234002113342
489,1989469800,-0.13554951548576,-0.35973167419434,-116.52863311767578,0.02250289358199,-0.02054416202009,9.48789978027344,-0.56980144977570,3.49203968048096,0.31177645921707
490,1989478133,-0.13557793200016,-0.35938292741776,-116.52832794189453,0.03678058832884,-0.03648173809052,9.48934841156006,-0.62802261114120,3.57930755615234,0.36449053883553
491,1989486466,-0.13492560386658,-0.35956606268883,-116.52775573730469,0.04571166634560,-0.02408567070961,9.47505092620850,-0.54705607891083,3.52487754821777,0.39071956276894
492,1989494799,-0.13564229011536,-0.35883784294128,-116.52864074707031,0.01868323609233,-0.03392220661044,9.49457836151123,-0.71101278066635,3.62641215324402,0.21544133126736
493,1989503132,-0.13493531942368,-0.35959321260452,-116.52908325195312,0.02350374311209,-0.03153498098254,9.48198413848877,-0.54039633274078,3.45710253715515,0.26951301097870
494,1989511465,-0.13442054390907,-0.35980963706970,-116.52898406982422,0.02906137332320,-0.03847625851631,9.51516628265381,-0.56319302320480,3.51347923278809,0.33067980408669
495,1989519798,-0.13475278019905,-0.35956886410713,-116.52884674072266,0.04146299138665,-0.01100310869515,9.48611736297607,-0.66524010896683,3.57707905769348,0.33539277315140
496,1989528131,-0.13505487143993,-0.35979086160660,-116.52838134765625,0.01805502921343,-0.04422653838992,9.54624462127686,-0.66021972894669,3.50976514816284,0.37875771522522
497,1989536464,-0.13542814552784,-0.35933110117912,-116.52838134765625,0.05448730289936,-0.03763241320848,9.51904296875000,-0.67069590091705,3.60361504554749,0.32181718945503
498,1989544797,-0.13564591109753,-0.35946714878082,-116.52839660644531,0.02554278820753,-0.02032785490155,9.51236248016357,-0.65056312084198,3.52088189125061,0.32394322752953
499,1989553130,-0.13534930348396,-0.35901084542274,-116.52891540527344,0.03028309345245,-0.02871789969504,9.48275089263916,-0.58978056907654,3.60359001159668,0.25770479440689
500,1989561463,-0.13595467805862,-0.35949048399925,-116.52838134765625,0.02400630712509,-0.03361582756042,9.51383590698242,-0.69631016254425,3.48012924194336,0.38567352294922
501,1989569796,-0.13568046689034,-0.35957551002502,-116.52794647216797,0.01250708848238,-0.01820171251893,9.50854110717773,-0.59252136945724,3.53773593902588,0.37253347039223
502,1989578129,-0.13455083966255,-0.35989534854889,-116.52846527099609,0.01986414194107,-0.02789229340851,9.51492977142334,-0.48857870697975,3.49936556816101,0.27107542753220
503,1989586462,-0.13489878177643,-0.36014440655708,-116.52787780761719,0.01568277180195,-0.04390608519316,9.53815174102783,-0.66758382320404,3.51792335510254,0.39308887720108
504,1989594795,-0.13559947907925,-0.36056742072105,-116.52753448486328,0.02307252585888,-0.01009588036686,9.51325702667236,-0.70755481719971,3.48445844650269,0.36572009325027
505,1989603128,-0.13615755736828,-0.36084336042404,-116.52732849121094,0.02385277673602,-0.03228204324841,9.49284934997559,-0.69198137521744,3.51532316207886,0.34438335895538
506,1989611461,-0.13610771298409,-0.36069527268410,-116.52804565429688,0.03929834440351,-0.02404520660639,9.49547863006592,-0.61931377649307,3.55451297760010,0.23319199681282
507,1989619794,-0.13566997647285,-0.36156553030014,-116.52796173095703,0.02091952785850,-0.02964095585048,9.51349925994873,-0.57392537593842,3.44365477561951,0.33160191774368
508,1989628127,-0.13479726016521,-0.36147823929787,-116.52832794189453,0.02294201217592,-0.01842355541885,9.49636173248291,-0.51854735612869,3.54752016067505,0.27653124928474
509,1989636460,-0.13515780866146,-0.36137583851814,-116.52817535400391,0.01810493320227,-0.03009222820401,9.50208282470703,-0.66877490282059,3.56130099296570,0.33969599008560
510,1989644793,-0.13498246669769,-0.36122828722000,-116.52913665771484,0.02765845693648,-0.04715405404568,9.48478794097900,-0.60391962528229,3.55543494224548,0.20814128220081
511,1989653126,-0.13476777076721,-0.36051124334335,-116.52946472167969,0.02644408494234,-0.03847468271852,9.49992561340332,-0.59997504949570,3.63417291641235,0.28144922852516
512,1989661459,-0.13492882251740,-0.36012822389603,-116.53029632568359,0.04358068853617,-0.04240120947361,9.49874782562256,-0.64526104927063,3.58261179924011,0.22666037082672
513,1989669792,-0.13468217849731,-0.36001372337341,-116.52972412109375,0.01422563847154,-0.01022969558835,9.50826168060303,-0.59492903947830,3.56227421760559,0.38882410526276
514,1989678125,-0.13490869104862,-0.35991436243057,-116.52936553955078,0.03533677384257,-0.03757462278008,9.49539279937744,-0.65235620737076,3.54892945289612,0.36057162284851
515,1989686458,-0.13487952947617,-0.35924744606018,-116.52831268310547,0.01259347237647,-0.04597996920347,9.49397754669189,-0.62085062265396,3.62700128555298,0.44550839066505
516,1989694791,-0.13506972789764,-0.35900932550430,-116.52806854248047,0.03318037837744,-0.03789775446057,9.51283740997314,-0.64692604541779,3.56596279144287,0.35657578706741
517,1989703124,-0.13467049598694,-0.35879942774773,-116.52777099609375,0.00957890413702,-0.01327212806791,9.49266147613525,-0.57743453979492,3.57333970069885,0.35862490534782
518,1989711457,-0.13492651283741,-0.35895222425461,-116.52718353271484,0.02571331337094,-0.03495598584414,9.47944545745850,-0.65478956699371,3.51778244972229,0.38464897871017
519,1989719790,-0.13504315912724,-0.35862988233566,-116.52604675292969,0.01228742673993,-0.01284291595221,9.48505210876465,-0.63837069272995,3.58717107772827,0.45885339379311
520,1989728123,-0.13473102450371,-0.35885384678841,-116.52682495117188,0.03656720370054,-0.03623074293137,9.47162246704102,-0.58727037906647,3.50925278663635,0.22489301860332
521,1989736456,-0.13429014384747,-0.35864630341530,-116.52673339843750,0.03416480869055,-0.02481478080153,9.49842453002930,-0.57162010669708,3.57295513153076,0.33324116468430
522,1989744789,-0.13426995277405,-0.35852465033531,-116.52663421630859,0.02691739611328,-0.02831079252064,9.52390193939209,-0.62302786111832,3.55108094215393,0.32519832253456
523,1989753122,-0.13416568934917,-0.35868006944656,-116.52706146240234,0.02779281325638,-0.03245875239372,9.52239227294922,-0.61293590068817,3.53015398979187,0.27015337347984
524,1989761455,-0.13443721830845,-0.35848465561867,-116.52713775634766,0.03951768577099,-0.03359818086028,9.48727416992188,-0.65665930509567,3.56017351150513,0.31098240613937
525,1989769788,-0.13480070233345,-0.35822007060051,-116.52737426757812,0.02904706820846,-0.01765052787960,9.50237083435059,-0.66882598400116,3.57976818084717,0.29207906126976
526,1989778121,-0.13590620458126,-0.35789641737938,-116.52793121337891,0.02975090779364,-0.04535284638405,9.48903083801270,-0.75906503200531,3.57597756385803,0.25176230072975
527,1989786454,-0.13571618497372,-0.35812947154045,-116.52804565429688,0.05722352117300,-0.01907675527036,9.48835849761963,-0.60110211372375,3.52095866203308,0.30819052457809
528,1989794787,-0.13615049421787,-0.35848310589790,-116.52915954589844,0.02414130419493,-0.00402172142640,9.52034568786621,-0.67835462093353,3.49506258964539,0.19284957647324
529,1989803120,-0.13659375905991,-0.35898473858833,-116.52880859375000,0.01644163578749,-0.03480593115091,9.51864814758301,-0.67784237861633,3.48742961883545,0.36282569169998
530,1989811453,-0.13609063625336,-0.35891780257225,-116.52889251708984,0.01478488277644,-0.03446555137634,9.52158737182617,-0.56403833627701,3.54498481750488,0.31369757652283
531,1989819786,-0.13654403388500,-0.35841676592827,-116.52960968017578,0.02390417456627,-0.03383869677782,9.49448776245117,-0.68114656209946,3.60771369934082,0.23339690268040
532,1989828119,-0.13638119399548,-0.35789164900780,-116.53002166748047,0.01820946298540,-0.03156613931060,9.48935794830322,-0.60435503721237,3.59995245933533,0.27174139022827
533,1989836452,-0.13703624904156,-0.35783061385155,-116.52998352050781,0.03367001563311,-0.00969151966274,9.48308277130127,-0.70463484525681,3.55525612831116,0.32532641291618
534,1989844785,-0.13718715310097,-0.35678908228874,-116.53024291992188,0.00514404568821,-0.01493083033711,9.50577068328857,-0.64341676235199,3.66196465492249,0.29026049375534
535,1989853118,-0.13688683509827,-0.35701557993889,-116.53044891357422,0.02224810421467,-0.02077320963144,9.52719783782959,-0.58906334638596,3.52085638046265,0.29694584012032
536,1989861451,-0.13689848780632,-0.35636276006699,-116.53102111816406,0.02844430692494,-0.01232112012804,9.51385211944580,-0.62684434652328,3.61626887321472,0.24989247322083
537,1989869784,-0.13816733658314,-0.35579991340637,-116.53089904785156,0.02555043622851,-0.04067458957434,9.51035976409912,-0.77679002285004,3.61473155021667,0.33616119623184
538,1989878117,-0.13887096941471,-0.35460501909256,-116.53156280517578,0.02497958950698,-0.03376355022192,9.51599693298340,-0.70973193645477,3.68230175971985,0.23298704624176
539,1989886450,-0.13861173391342,-0.35428518056870,-116.53148651123047,0.02623537182808,-0.03083317726851,9.50190544128418,-0.59393006563187,3.58591604232788,0.33219099044800
540,1989894783,-0.13848139345646,-0.35453176498413,-116.53279876708984,0.02174311503768,-0.05029481649399,9.51580238342285,-0.61037445068359,3.50694775581360,0.16592903435230
541,1989903116,-0.13864777982235,-0.35463669896126,-116.53346252441406,0.01569678075612,-0.01947113871574,9.49507904052734,-0.64541471004486,3.53563547134399,0.24151663482189
542,1989911449,-0.13967019319534,-0.35449022054672,-116.53379058837891,0.02712521888316,-0.03922930359840,9.50355052947998,-0.74782043695450,3.55423164367676,0.28032219409943
543,1989919782,-0.13960155844688,-0.35474455356598,-116.53276824951172,0.02762915752828,-0.04827388748527,9.51353454589844,-0.61559975147247,3.51788496971130,0.44322875142097
544,1989928115,-0.14003184437752,-0.35470691323280,-116.53282165527344,-0.00693690869957,-0.03488650918007,9.51440143585205,-0.67661291360855,3.54111695289612,0.32058775424957
545,1989936448,-0.13851191103458,-0.35432919859886,-116.53253936767578,0.03121363185346,-0.01486732158810,9.51789379119873,-0.44178155064583,3.59344696998596,0.35509014129639
546,1989944781,-0.13808098435402,-0.35381400585175,-116.53361511230469,0.02722018398345,-0.03192976489663,9.47826671600342,-0.57500112056732,3.59910726547241,0.19328500330448
547,1989953114,-0.13808082044125,-0.35396242141724,-116.53346252441406,0.01565403491259,-0.04264171048999,9.50173091888428,-0.62479531764984,3.53074312210083,0.33900439739227
548,1989961447,-0.13846488296986,-0.35403189063072,-116.53416442871094,0.02768011204898,-0.04387110844254,9.48960781097412,-0.67128509283066,3.52848911285400,0.23995417356491
549,1989969780,-0.13826985657215,-0.35464137792587,-116.53541564941406,0.02969965524971,-0.02842385508120,9.51518917083740,-0.60340726375580,3.47603082656860,0.16872094571590
550,1989978113,-0.13841427862644,-0.35473474860191,-116.53574371337891,0.01563769206405,-0.02922085486352,9.52161598205566,-0.64162379503250,3.52623534202576,0.27863168716431
551,1989986446,-0.13843545317650,-0.35463464260101,-116.53643035888672,0.03101909533143,-0.01377012301236,9.50375938415527,-0.62758725881577,3.56050705909729,0.23916012048721
552,1989994779,-0.13915492594242,-0.35438996553421,-116.53710174560547,0.03435295820236,-0.00826455838978,9.50150775909424,-0.71201175451279,3.56650066375732,0.24243874847889
553,1990003112,-0.13838164508343,-0.35423260927200,-116.53670501708984,0.02113061584532,-0.02189576253295,9.50638866424561,-0.53140568733215,3.56606483459473,0.36733373999596
554,1990011445,-0.13931469619274,-0.35394111275673,-116.53670501708984,0.00478023197502,-0.02593495883048,9.48819637298584,-0.73788201808929,3.57308316230774,0.31915333867073
555,1990019778,-0.13929753005505,-0.35435500741005,-116.53712463378906,0.01909923553467,-0.03465112298727,9.49802780151367,-0.62266927957535,3.49931454658508,0.26994845271111
556,1990028111,-0.13951501250267,-0.35460078716278,-116.53794860839844,0.03609557822347,-0.03166379034519,9.52194404602051,-0.65151095390320,3.50687074661255,0.22079472243786
557,1990036444,-0.14046092331409,-0.35374161601067,-116.53752136230469,0.02658618241549,-0.02410750463605,9.48077487945557,-0.73867607116699,3.65112924575806,0.37050983309746
558,1990044777,-0.14022161066532,-0.35427668690681,-116.53781127929688,0.03444620966911,-0.05144909769297,9.48899650573730,-0.59457045793533,3.47349548339844,0.28698194026947
559,1990053110,-0.13924978673458,-0.35415378212929,-116.53787994384766,0.02055066265166,-0.03038247860968,9.52126026153564,-0.50889080762863,3.56299138069153,0.31318524479866
560,1990061443,-0.13833831250668,-0.35284754633904,-116.53774261474609,0.01676764152944,-0.04298216477036,9.50134468078613,-0.51637017726898,3.69508361816406,0.33580261468887
561,1990069776,-0.13828659057617,-0.35299363732338,-116.53881835937500,0.02605486474931,-0.01696963794529,9.50126266479492,-0.61972361803055,3.52969312667847,0.19151765108109
562,1990078109,-0.13775071501732,-0.35275065898895,-116.53917694091797,0.03874252364039,-0.03208493813872,9.51448249816895,-0.55965828895569,3.56703853607178,0.27899029850960
563,1990086442,-0.13721008598804,-0.35247227549553,-116.53976440429688,0.02139962278306,-0.02321304008365,9.49777698516846,-0.56116944551468,3.58138203620911,0.25232580304146
564,1990094775,-0.13734321296215,-0.35252597928047,-116.53961181640625,0.01909654587507,-0.01143541466445,9.50790405273438,-0.63995891809464,3.53094816207886,0.33436825871468
565,1990103108,-0.13724733889103,-0.35270282626152,-116.53850555419922,0.03863894939423,-0.03825687244534,9.50073528289795,-0.61365300416946,3.52605557441711,0.45355123281479
566,1990111441,-0.13656610250473,-0.35272285342216,-116.53824615478516,0.01632210053504,-0.02385180629790,9.46911430358887,-0.54195886850357,3.53473901748657,0.35360452532768
567,1990119774,-0.13625529408455,-0.35317283868790,-116.53779602050781,0.02898790687323,-0.00918768253177,9.49171447753906,-0.58809000253677,3.49398660659790,0.37729766964912
568,1990128107,-0.13614296913147,-0.35333722829819,-116.53788757324219,0.02166900224984,-0.01511388085783,9.54107379913330,-0.60983651876450,3.51755189895630,0.30714029073715
569,1990136440,-0.13654753565788,-0.35343512892723,-116.53852081298828,0.03399345651269,-0.02893733233213,9.49713611602783,-0.67620301246643,3.53671097755432,0.24459032714367
570,1990144773,-0.13619211316109,-0.35258704423904,-116.53821563720703,0.03476334363222,-0.02244679071009,9.49847412109375,-0.58040571212769,3.63944959640503,0.36251825094223
571,1990153106,-0.13660803437233,-0.35303857922554,-116.53835296630859,0.02634521760046,-0.02740038931370,9.48457431793213,-0.67597252130508,3.49329519271851,0.30229920148849
572,1990161439,-0.13634547591209,-0.35240530967712,-116.53719329833984,0.00994507689029,-0.03950875997543,9.52004146575928,-0.59231632947922,3.61237478256226,0.46185019612312
573,1990169772,-0.13690248131752,-0.35218399763107,-116.53667449951172,0.03135823085904,-0.03275385499001,9.48526954650879,-0.69113600254059,3.57523441314697,0.38234364986420
574,1990178105,-0.13690066337585,-0.35244193673134,-116.53677368164062,0.02107568830252,-0.03359130769968,9.49180412292480,-0.62446224689484,3.50566697120667,0.31210950016975
575,1990186438,-0.13723358511925,-0.35258242487907,-116.53670501708984,0.02433672361076,-0.02898148819804,9.50804901123047,-0.66516333818436,3.53087115287781,0.32840010523796
576,1990194771,-0.13696105778217,-0.35287868976593,-116.53686523437500,0.01165993511677,-0.05766449496150,9.49032783508301,-0.59259819984436,3.50146627426147,0.30491188168526
577,1990203104,-0.13724851608276,-0.35221531987190,-116.53787994384766,0.02231085672975,-0.03908785805106,9.50462245941162,-0.65883642435074,3.62799978256226,0.19938117265701
578,1990211437,-0.13659462332726,-0.35186743736267,-116.53768920898438,0.02796943858266,-0.04520014300942,9.53349304199219,-0.54592895507812,3.57920503616333,0.34417849779129
579,1990219770,-0.13692811131477,-0.35183098912239,-116.53755950927734,0.01611477322876,-0.03837423399091,9.48090267181396,-0.66498398780823,3.55215668678284,0.33557212352753
580,1990228103,-0.13786214590073,-0.35152262449265,-116.53696441650391,0.01662848517299,-0.02310749888420,9.48452949523926,-0.73780518770218,3.57487630844116,0.39755851030350
581,1990236436,-0.13839820027351,-0.35161012411118,-116.53697204589844,0.03054762445390,-0.04103168472648,9.50071239471436,-0.68938159942627,3.53746700286865,0.31962728500366
582,1990244769,-0.13820354640484,-0.35209095478058,-116.53719329833984,0.02298374287784,-0.02301184646785,9.50038146972656,-0.60092264413834,3.47989869117737,0.29307803511620
583,1990253102,-0.13813391327858,-0.35228177905083,-116.53723907470703,0.01997892558575,-0.02887000888586,9.51274776458740,-0.61662429571152,3.52410912513733,0.31841057538986
584,1990261435,-0.13739778101444,-0.35253208875656,-116.53708648681641,0.03227021917701,-0.01199561916292,9.49712181091309,-0.53652864694595,3.50745987892151,0.33928614854813
585,1990269768,-0.13661623001099,-0.35247662663460,-116.53814697265625,0.03673762455583,-0.01092852931470,9.50577831268311,-0.53263521194458,3.55397534370422,0.19384855031967
586,1990278101,-0.13662396371365,-0.35235613584518,-116.53855895996094,0.02253251336515,-0.01521442085505,9.51111888885498,-0.62435984611511,3.55323266983032,0.27578848600388
587,1990286434,-0.13691204786301,-0.35179242491722,-116.53813934326172,0.02227317728102,-0.02913242764771,9.51819133758545,-0.66021972894669,3.61550045013428,0.36951097846031
588,1990294767,-0.13682083785534,-0.35123935341835,-116.53769683837891,0.02817861735821,0.00048251848784,9.49624347686768,-0.61296135187149,3.60202670097351,0.37722077965736
589,1990303100,-0.13688756525517,-0.35173642635345,-116.53787994384766,0.04035946726799,-0.01415956579149,9.48526287078857,-0.63437497615814,3.48801875114441,0.29822656512260
590,1990311433,-0.13689900934696,-0.35264664888382,-116.53795623779297,0.02863607928157,-0.02744363248348,9.51808452606201,-0.62489771842957,3.42861914634705,0.31039333343506
591,1990319766,-0.13698238134384,-0.35269099473953,-116.53876495361328,0.03117086365819,-0.01894361712039,9.51926708221436,-0.63598871231079,3.54265403747559,0.22540529072285
592,1990328099,-0.13779813051224,-0.35274109244347,-116.53804016113281,0.01842252910137,-0.03004690073431,9.47716903686523,-0.72279530763626,3.53158855438232,0.41218429803848
593,1990336432,-0.13791693747044,-0.35330489277840,-116.53730010986328,0.02111671864986,-0.03469756618142,9.49958705902100,-0.63852447271347,3.47994995117188,0.40767616033554
594,1990344765,-0.13780488073826,-0.35259896516800,-116.53827667236328,0.01873739808798,-0.02405638433993,9.49932384490967,-0.61075854301453,3.62085318565369,0.20724475383759
595,1990353098,-0.13772119581699,-0.35235545039177,-116.53820800781250,0.03518402576447,-0.01598989591002,9.49623012542725,-0.61457520723343,3.57743787765503,0.32778537273407
596,1990361431,-0.13818033039570,-0.35236123204231,-116.53828430175781,0.02187986299396,-0.03667161241174,9.51346302032471,-0.68106973171234,3.53722333908081,0.30995789170265
597,1990369764,-0.13719686865807,-0.35189938545227,-116.53788757324219,0.02548548579216,-0.03353509679437,9.52096843719482,-0.50604760646820,3.60310316085815,0.36981830000877
598,1990378097,-0.13681046664715,-0.35194033384323,-116.53736877441406,0.02173848450184,-0.01750065386295,9.49998855590820,-0.57804924249649,3.53148627281189,0.38375249505043
599,1990386430,-0.13664565980434,-0.35216715931892,-116.53713989257812,0.02057560533285,-0.01639725454152,9.52957820892334,-0.60601997375488,3.52067661285400,0.34986481070518
600,1990394763,-0.13660022616386,-0.35212677717209,-116.53694915771484,0.05833406746387,-0.02181358262897,9.47101306915283,-0.61877590417862,3.54280757904053,0.34440901875496
601,1990403096,-0.13610553741455,-0.35162067413330,-116.53752136230469,-0.00249268440530,-0.04382723197341,9.54743385314941,-0.56708633899689,3.60948085784912,0.25291493535042
602,1990411429,-0.13716435432434,-0.35142433643341,-116.53710937500000,0.05098352581263,-0.01094421371818,9.48128318786621,-0.74951094388962,3.56030178070068,0.36910110712051
603,1990419762,-0.13708816468716,-0.35157585144043,-116.53749847412109,-0.00284012826160,-0.05042153969407,9.51546764373779,-0.61808425188065,3.52999997138977,0.27583968639374
604,1990428095,-0.13693104684353,-0.35200238227844,-116.53800201416016,0.05172584205866,0.00358224892989,9.43373203277588,-0.60581505298615,3.48499584197998,0.25819146633148
605,1990436428,-0.13634106516838,-0.35201358795166,-116.53783416748047,0.02063512988389,-0.05215521156788,9.53381824493408,-0.55348521471024,3.54744362831116,0.34130969643593
606,1990444761,-0.13596285879612,-0.35265067219734,-116.53746795654297,0.02014973573387,-0.02968989312649,9.50287723541260,-0.57920187711716,3.46007323265076,0.36408069729805
607,1990453094,-0.13579118251801,-0.35316038131714,-116.53742980957031,0.01244865357876,0.00216734129936,9.47134017944336,-0.60471367835999,3.48714780807495,0.32486537098885
608,1990461427,-0.13642525672913,-0.35313469171524,-116.53750610351562,0.00875725317746,-0.03048069588840,9.52844619750977,-0.70084387063980,3.54065537452698,0.30775502324104
609,1990469760,-0.13644520938396,-0.35353028774261,-116.53779602050781,0.03104750812054,-0.01318033318967,9.46811676025391,-0.62856060266495,3.49972462654114,0.28700754046440
610,1990478093,-0.13724075257778,-0.35369023680687,-116.53762817382812,0.00945455580950,-0.03176831826568,9.52001190185547,-0.71918368339539,3.51814103126526,0.33229351043701
611,1990486426,-0.13705055415630,-0.35316193103790,-116.53753662109375,0.00532024214044,-0.02426660805941,9.50953483581543,-0.60230588912964,3.61160683631897,0.33388152718544
612,1990494759,-0.13695979118347,-0.35335010290146,-116.53813934326172,0.02427111752331,-0.02564438804984,9.48483085632324,-0.61339694261551,3.51381230354309,0.24758720397949
613,1990503092,-0.13732515275478,-0.35381475090981,-116.53824615478516,0.02267678081989,-0.01684735342860,9.50626850128174,-0.66972267627716,3.49204015731812,0.30834418535233
614,1990511425,-0.13680510222912,-0.35386714339256,-116.53843688964844,0.03958832100034,-0.02541227079928,9.52367401123047,-0.56250143051147,3.53248500823975,0.29225847125053
615,1990519758,-0.13728643953800,-0.35364669561386,-116.53817749023438,0.02659342251718,-0.00689391931519,9.49930381774902,-0.68398970365524,3.57423591613770,0.34991604089737
616,1990528091,-0.13697622716427,-0.35388636589050,-116.53738403320312,0.03879418224096,-0.02398321591318,9.51248073577881,-0.58581036329269,3.50769042968750,0.41279906034470
617,1990536424,-0.13714750111103,-0.35368752479553,-116.53752136230469,0.02992472611368,-0.01817518472672,9.47914695739746,-0.64641356468201,3.57259654998779,0.30532166361809
618,1990544757,-0.13726457953453,-0.35322767496109,-116.53697204589844,0.02740615792572,-0.02663602679968,9.52317905426025,-0.63755112886429,3.59024453163147,0.38549423217773
619,1990553090,-0.13727571070194,-0.35332953929901,-116.53614044189453,0.03521560877562,-0.02465794235468,9.50624275207520,-0.62594795227051,3.53645515441895,0.42178964614868
620,1990561423,-0.13680171966553,-0.35338160395622,-116.53562164306641,0.01509111281484,-0.01544316299260,9.53148746490479,-0.56811094284058,3.53064084053040,0.38231807947159
621,1990569756,-0.13705444335938,-0.35369017720222,-116.53536224365234,0.04073997959495,-0.05016668885946,9.51224231719971,-0.65455895662308,3.51035451889038,0.35135048627853
622,1990578089,-0.13688674569130,-0.35249495506287,-116.53508758544922,0.02730272524059,-0.03479070961475,9.48527526855469,-0.60509783029556,3.68143153190613,0.35831752419472
623,1990586422,-0.13701348006725,-0.35245639085770,-116.53488922119141,0.02209508977830,-0.02115802094340,9.49503898620605,-0.63965153694153,3.55284833908081,0.34535679221153
624,1990594755,-0.13727690279484,-0.35273808240891,-116.53503417968750,0.03750156983733,-0.03180842846632,9.49833202362061,-0.65635192394257,3.50251603126526,0.30534729361534
625,1990603088,-0.13730983436108,-0.35264167189598,-116.53515625000000,0.01812441274524,-0.04745375365019,9.51709556579590,-0.62979000806808,3.55894422531128,0.30719149112701
626,1990611421,-0.13642168045044,-0.35248526930809,-116.53522491455078,0.02044885233045,-0.04071014747024,9.51796150207520,-0.51798391342163,3.55551218986511,0.31841057538986
627,1990619754,-0.13705506920815,-0.35169550776482,-116.53489685058594,0.00671398174018,-0.04009910300374,9.52611446380615,-0.70017790794373,3.64331722259521,0.36108386516571
628,1990628087,-0.13741751015186,-0.35188901424408,-116.53470611572266,0.00251175439917,-0.02452298253775,9.51355266571045,-0.66782712936401,3.51296687126160,0.34320515394211
629,1990636420,-0.13718798756599,-0.35227006673813,-116.53440856933594,0.03689421340823,-0.04090172797441,9.49738693237305,-0.59907859563828,3.50208091735840,0.35826635360718
630,1990644753,-0.13789258897305,-0.35182753205299,-116.53477478027344,0.03729766607285,-0.03441463410854,9.51335906982422,-0.70750355720520,3.59142279624939,0.27729970216751
631,1990653086,-0.13839936256409,-0.35173177719116,-116.53368377685547,0.03132035955787,-0.02506534941494,9.52448940277100,-0.68603879213333,3.55891847610474,0.45116910338402
632,1990661419,-0.13813109695911,-0.35222548246384,-116.53424072265625,0.03875880688429,-0.02132139913738,9.52251625061035,-0.59328979253769,3.47790098190308,0.25527149438858
633,1990669752,-0.13745073974133,-0.35275012254715,-116.53416442871094,0.01486954465508,-0.02130331285298,9.52456378936768,-0.54323959350586,3.48448395729065,0.33216544985771
634,1990678085,-0.13763979077339,-0.35278815031052,-116.53347778320312,0.01406234875321,0.00656566489488,9.52394962310791,-0.64715647697449,3.53330469131470,0.40818849205971
635,1990686418,-0.13753263652325,-0.35262739658356,-116.53364562988281,0.02392057701945,-0.01414449233562,9.47834205627441,-0.61216747760773,3.56698727607727,0.30089044570923
636,1990694751,-0.13794198632240,-0.35195720195770,-116.53358459472656,0.03448868915439,-0.03501164540648,9.49138450622559,-0.67412823438644,3.61788249015808,0.32983449101448
637,1990703084,-0.13754798471928,-0.35244223475456,-116.53312683105469,0.01312542427331,-0.02435294352472,9.48880672454834,-0.57715272903442,3.48940157890320,0.37604260444641
638,1990711417,-0.13811857998371,-0.35233959555626,-116.53285217285156,0.01839294284582,-0.02107315510511,9.49586677551270,-0.69249367713928,3.54875016212463,0.35788211226463
639,1990719750,-0.13853800296783,-0.35178875923157,-116.53312683105469,0.02618998102844,-0.05202368274331,9.50349998474121,-0.67543441057205,3.61411690711975,0.28664883971214
640,1990728083,-0.13844534754753,-0.35147115588188,-116.53244018554688,0.02772004343569,-0.03403516858816,9.51162052154541,-0.61329430341721,3.57520866394043,0.40555012226105
641,1990736416,-0.13799965381622,-0.35149422287941,-116.53150177001953,0.01987713016570,-0.03708478808403,9.49804210662842,-0.57154321670532,3.54539465904236,0.43190726637840
642,1990744749,-0.13791292905807,-0.35160073637962,-116.53145599365234,0.02125748991966,-0.01682211272418,9.49058246612549,-0.61392205953598,3.52427554130554,0.32421222329140
643,1990753082,-0.13861824572086,-0.35170722007751,-116.53192138671875,0.03051392734051,-0.02033081091940,9.51665496826172,-0.71037238836288,3.53466224670410,0.26403155922890
644,1990761415,-0.13870649039745,-0.35196432471275,-116.53197479248047,0.01254849415272,-0.03823256120086,9.50760269165039,-0.63483607769012,3.50656342506409,0.31164839863777
645,1990769748,-0.13847708702087,-0.35182735323906,-116.53227996826172,0.02051861584187,-0.04504588246346,9.50293445587158,-0.59836137294769,3.56455373764038,0.28462538123131
646,1990778081,-0.13753718137741,-0.35164222121239,-116.53244018554688,0.02831299789250,-0.02679450437427,9.53294849395752,-0.51155471801758,3.55853486061096,0.30314448475838
647,1990786414,-0.13747565448284,-0.35156041383743,-116.53247833251953,0.02894968353212,-0.01659662090242,9.49895191192627,-0.61854535341263,3.55855989456177,0.31615650653839
648,1990794747,-0.13815836608410,-0.35141324996948,-116.53224945068359,0.04320166632533,-0.02435677684844,9.50570011138916,-0.70627409219742,3.55384683609009,0.34981358051300
649,1990803080,-0.13793301582336,-0.35113477706909,-116.53157806396484,0.02825877629220,-0.00678699603304,9.50629901885986,-0.59759289026260,3.58235573768616,0.40201541781425
650,1990811413,-0.13828906416893,-0.35104957222939,-116.53150177001953,0.02279540337622,-0.02058004215360,9.46880912780762,-0.66708433628082,3.54662346839905,0.32957836985588
651,1990819746,-0.13806872069836,-0.35102418065071,-116.53211212158203,0.01645575277507,-0.03827042505145,9.55439758300781,-0.59932190179825,3.55145239830017,0.24847087264061
652,1990828079,-0.13817398250103,-0.35194200277328,-116.53166198730469,0.03717630729079,-0.00166192313191,9.47232437133789,-0.63665467500687,3.42692875862122,0.38001281023026
653,1990836412,-0.13820995390415,-0.35185763239861,-116.53157806396484,0.01459623221308,-0.06670922040939,9.53444004058838,-0.62950831651688,3.55909824371338,0.33116644620895
654,1990844745,-0.13689613342285,-0.35184326767921,-116.53140258789062,0.01156858075410,-0.02860760875046,9.49474906921387,-0.46560278534889,3.53668570518494,0.34643253684044
655,1990853078,-0.13709887862206,-0.35229703783989,-116.53200531005859,-0.01230607647449,-0.00073599454481,9.52776145935059,-0.65066564083099,3.49501156806946,0.24966196715832
656,1990861411,-0.13716426491737,-0.35241734981537,-116.53261566162109,0.02381086908281,-0.06492370367050,9.49955081939697,-0.63304305076599,3.52154779434204,0.24963635206223
657,1990869744,-0.13761982321739,-0.35286110639572,-116.53299713134766,0.02695677243173,-0.02193194255233,9.49923801422119,-0.68112093210220,3.49547243118286,0.27307337522507
658,1990878077,-0.13748210668564,-0.35242900252342,-116.53384399414062,0.02418595366180,-0.03588336333632,9.46277809143066,-0.60850453376770,3.58850288391113,0.22376595437527
659,1990886410,-0.13602654635906,-0.35186505317688,-116.53385925292969,-0.00231338199228,-0.06436710059643,9.56565952301025,-0.44944018125534,3.61611509323120,0.31902527809143
660,1990894743,-0.13568004965782,-0.35041305422783,-116.53364562988281,0.03619321063161,0.02094308286905,9.50271511077881,-0.58245486021042,3.70932507514954,0.34704723954201
661,1990903076,-0.13587030768394,-0.35136961936951,-116.53369903564453,0.05208330601454,-0.01159192156047,9.52519512176514,-0.64792490005493,3.43389582633972,0.31359508633614
662,1990911409,-0.13561251759529,-0.35193231701851,-116.53453063964844,0.05874211341143,-0.00283252075315,9.46847438812256,-0.59487771987915,3.46957612037659,0.22269015014172
663,1990919742,-0.13594931364059,-0.35214045643806,-116.53406524658203,0.04679763317108,-0.01816082186997,9.50818347930908,-0.66552191972733,3.52270030975342,0.37427520751953
664,1990928075,-0.13535563647747,-0.35124534368515,-116.53388977050781,0.00847531016916,-0.03115747496486,9.51439094543457,-0.55199956893921,3.64406013488770,0.33908122777939
665,1990936408,-0.13471269607544,-0.35182023048401,-116.53330230712891,-0.01330137159675,-0.00752867152914,9.49877929687500,-0.54895144701004,3.47854113578796,0.39238443970680
666,1990944741,-0.13522329926491,-0.35175403952599,-116.53238677978516,0.01340531278402,0.00076956965495,9.49672603607178,-0.68450200557709,3.54485630989075,0.42675876617432
667,1990953074,-0.13545045256615,-0.35172384977341,-116.53286743164062,0.02210045419633,-0.02396444231272,9.50965976715088,-0.65307337045670,3.55195188522339,0.26264840364456
668,1990961407,-0.13589835166931,-0.35055369138718,-116.53321838378906,0.02737437188625,-0.02091389149427,9.53900146484375,-0.67902052402496,3.67697429656982,0.27840110659599
669,1990969740,-0.13582828640938,-0.35005494952202,-116.53350830078125,0.01930807903409,-0.03551239147782,9.50439357757568,-0.61557412147522,3.60776495933533,0.28652080893517
670,1990978073,-0.13561251759529,-0.35026818513870,-116.53357696533203,0.02240717411041,-0.04683933779597,9.54503536224365,-0.60007756948471,3.51273655891418,0.31205826997757
671,1990986406,-0.13573861122131,-0.35097038745880,-116.53319549560547,0.02622336521745,-0.05043055117130,9.47026157379150,-0.63947206735611,3.46432518959045,0.36651405692101
672,1990994739,-0.13540814816952,-0.35074135661125,-116.53294372558594,0.04497999325395,-0.07097330689430,9.49044799804688,-0.58435040712357,3.56373453140259,0.35240069031715
673,1991003072,-0.13484357297421,-0.35080656409264,-116.53254699707031,0.04152874648571,-0.05442431196570,9.46800327301025,-0.55783951282501,3.53996396064758,0.36953654885292
674,1991011405,-0.13506865501404,-0.35091152787209,-116.53160858154297,0.00197520339862,-0.02301385812461,9.51388931274414,-0.65076816082001,3.52398109436035,0.43772169947624
675,1991019738,-0.13537299633026,-0.35094904899597,-116.53167724609375,0.01962088979781,-0.04337610676885,9.50423526763916,-0.66255068778992,3.54319190979004,0.31159716844559
676,1991028071,-0.13530556857586,-0.35137712955475,-116.53181457519531,0.02125279977918,-0.01489905919880,9.47275733947754,-0.61534357070923,3.48655819892883,0.30416902899742
677,1991036404,-0.13535918295383,-0.35120278596878,-116.53083038330078,0.02782738581300,-0.03345844894648,9.49821472167969,-0.63117307424545,3.56834411621094,0.43969389796257
678,1991044737,-0.13531823456287,-0.35159301757812,-116.53069305419922,0.04539225623012,0.00333070452325,9.50903511047363,-0.61910891532898,3.48993992805481,0.33846649527550
679,1991053070,-0.13566219806671,-0.35128048062325,-116.53021240234375,0.03764314204454,-0.00252654310316,9.49887657165527,-0.66808325052261,3.58499383926392,0.37829661369324
680,1991061403,-0.13591498136520,-0.35164019465446,-116.53040313720703,0.05298186838627,-0.00336942402646,9.50113296508789,-0.65384173393250,3.49480605125427,0.29894375801086
681,1991069736,-0.13654375076294,-0.35266774892807,-116.52986907958984,0.03095619007945,0.01272709667683,9.49191665649414,-0.70015239715576,3.42470049858093,0.38380372524261
682,1991078069,-0.13701446354389,-0.35263261198997,-116.52998352050781,0.02714558318257,-0.02276630327106,9.51516056060791,-0.68117219209671,3.53947782516479,0.31059822440147
683,1991086402,-0.13646361231804,-0.35154047608376,-116.52927398681641,0.00373933184892,-0.01179880276322,9.51116371154785,-0.55945330858231,3.67869091033936,0.40511471033096
