sep=,
DeviceTag:,Right Foot
FirmwareVersion:,2.4.0
AppVersion:,2022.0.0
StartTime: ,2023-06-27_13:37:05_000 CEST
© Xsens Technologies B. V. 2005-2023

PacketCounter,SampleTimeFine,Euler_X,Euler_Y,Euler_Z,Acc_X,Acc_Y,Acc_Z,Gyr_X,Gyr_Y,Gyr_Z
0,1951154666,-0.12489388883114,-0.28903886675835,-116.49170684814453,0.00000000000000,0.00000000000000,0.00000000000000,0.00000000000000,0.00000000000000,0.00000000000000
1,1951162999,-0.12489434331656,-0.28862118721008,-116.49205017089844,0.01586787588894,-0.02904129587114,9.52377700805664,-0.62421888113022,3.58795213699341,0.27744054794312
2,1951171332,-0.12448689341545,-0.28817832469940,-116.49177551269531,0.03727742657065,-0.01231534779072,9.47715377807617,-0.57624340057373,3.60109186172485,0.34688070416451
3,1951179665,-0.12465893477201,-0.28827148675919,-116.49212646484375,0.00651332829148,-0.02270788885653,9.54082679748535,-0.64581167697906,3.52565860748291,0.26878297328949
4,1951187998,-0.12523972988129,-0.28764492273331,-116.49196624755859,0.03756548464298,-0.00674728909507,9.48969268798828,-0.69637411832809,3.62276172637939,0.33133292198181
5,1951196331,-0.12589706480503,-0.28765973448753,-116.49151611328125,0.02284849807620,-0.04124597460032,9.51979541778564,-0.70211184024811,3.53613471984863,0.37956455349922
6,1951204664,-0.12562432885170,-0.28694310784340,-116.49179077148438,0.04232031852007,-0.02206338383257,9.50910568237305,-0.59391719102859,3.63367295265198,0.28184619545937
7,1951212997,-0.12544888257980,-0.28717869520187,-116.49163818359375,0.02050440758467,-0.02670373953879,9.49025249481201,-0.60285669565201,3.50954747200012,0.33745476603508
8,1951221330,-0.12573142349720,-0.28727930784225,-116.49111938476562,0.02307048067451,-0.04046529158950,9.53814125061035,-0.65992516279221,3.53564834594727,0.37536382675171
9,1951229663,-0.12571926414967,-0.28722715377808,-116.49110412597656,0.03391002118587,-0.03607868030667,9.48500442504883,-0.62286138534546,3.54399871826172,0.32288026809692
10,1951237996,-0.12584604322910,-0.28737211227417,-116.49124145507812,0.01652187108994,-0.02019089460373,9.48738479614258,-0.64056080579758,3.53062796592712,0.29465338587761
11,1951246329,-0.12543359398842,-0.28798174858093,-116.49155426025391,0.01950072497129,-0.02829993516207,9.49249076843262,-0.57524454593658,3.46487617492676,0.27639040350914
12,1951254662,-0.12592720985413,-0.28740233182907,-116.49150085449219,0.02717966586351,-0.02616447024047,9.52550411224365,-0.68625640869141,3.61763882637024,0.31811594963074
13,1951262995,-0.12604948878288,-0.28753465414047,-116.49153137207031,0.03608453273773,-0.04669864475727,9.47156429290771,-0.63730782270432,3.52168869972229,0.31778302788734
14,1951271328,-0.12516000866890,-0.28745907545090,-116.49118804931641,0.01494959089905,-0.03362107649446,9.49996471405029,-0.51904690265656,3.55593490600586,0.35392469167709
15,1951279661,-0.12468752264977,-0.28801923990250,-116.49163818359375,0.01122570596635,-0.01600578986108,9.49523544311523,-0.56812375783920,3.47232985496521,0.25787132978439
16,1951287994,-0.12492705881596,-0.28820997476578,-116.49151611328125,0.00987354107201,-0.02068013139069,9.51797485351562,-0.65541702508926,3.52555608749390,0.32608202099800
17,1951296327,-0.12474581599236,-0.28765133023262,-116.49193572998047,0.02549928054214,-0.02226603962481,9.49784469604492,-0.60280537605286,3.60565185546875,0.27137002348900
18,1951304660,-0.12462727725506,-0.28844228386879,-116.49212646484375,0.01019633095711,-0.03283150866628,9.52412509918213,-0.61220592260361,3.45255589485168,0.28817299008369
19,1951312993,-0.12529848515987,-0.28893479704857,-116.49243164062500,0.03116487711668,-0.02668310888112,9.47036170959473,-0.70436590909958,3.47719669342041,0.28018131852150
20,1951321326,-0.12549313902855,-0.28905710577965,-116.49296569824219,0.03475346416235,-0.04623265564442,9.48810291290283,-0.64955145120621,3.53357315063477,0.24946986138821
21,1951329659,-0.12586736679077,-0.28972458839417,-116.49257659912109,0.01801458746195,-0.03665241599083,9.49885654449463,-0.66894137859344,3.45729446411133,0.35881704092026
22,1951337992,-0.12593811750412,-0.28950756788254,-116.49241638183594,0.01691834628582,-0.02233094163239,9.49517345428467,-0.63405466079712,3.57427382469177,0.33243426680565
23,1951346325,-0.12641090154648,-0.28969833254814,-116.49255371093750,0.03273129835725,-0.02350609190762,9.44995594024658,-0.68118500709534,3.51423478126526,0.29700988531113
24,1951354658,-0.12566258013248,-0.28951212763786,-116.49256896972656,0.03046419657767,-0.04209125414491,9.49669742584229,-0.53679746389389,3.57043218612671,0.31173801422119
25,1951362991,-0.12628914415836,-0.28973114490509,-116.49198150634766,0.01974374242127,-0.03046936728060,9.49965858459473,-0.69960165023804,3.51216006278992,0.38960537314415
26,1951371324,-0.12613141536713,-0.28994697332382,-116.49148559570312,0.03869896382093,-0.02051579393446,9.49161434173584,-0.60672444105148,3.52281570434570,0.37218764424324
27,1951379657,-0.12623675167561,-0.28932797908783,-116.49221038818359,0.02296818047762,-0.01501065399498,9.52626132965088,-0.63746148347855,3.61238813400269,0.23020792007446
28,1951387990,-0.12639254331589,-0.28965371847153,-116.49240112304688,0.02057098411024,-0.03019216284156,9.52816200256348,-0.64488959312439,3.50918841362000,0.28963294625282
29,1951396323,-0.12631867825985,-0.28991872072220,-116.49174499511719,0.03542828559875,-0.02057451009750,9.50903892517090,-0.61510032415390,3.50455260276794,0.39882647991180
30,1951404656,-0.12700690329075,-0.29043346643448,-116.49198913574219,0.02877075597644,0.00050386780640,9.49333095550537,-0.70848977565765,3.48736500740051,0.28118023276329
31,1951412989,-0.12669138610363,-0.28960889577866,-116.49185180664062,0.01079547591507,-0.01760128140450,9.50934886932373,-0.58623296022415,3.63587665557861,0.33643016219139
32,1951421322,-0.12619298696518,-0.29002413153648,-116.49255371093750,0.02161853387952,-0.03126575052738,9.51773357391357,-0.56697112321854,3.49802112579346,0.22705742716789
33,1951429655,-0.12643352150917,-0.28968283534050,-116.49257659912109,0.01198255270720,-0.02812096290290,9.51188087463379,-0.65277868509293,3.57773160934448,0.31040605902672
34,1951437988,-0.12685354053974,-0.28971043229103,-116.49276733398438,0.01537825167179,-0.00786923244596,9.49003219604492,-0.67657446861267,3.54584288597107,0.28894141316414
35,1951446321,-0.12658210098743,-0.28944221138954,-116.49245452880859,0.01722965389490,-0.02267261594534,9.50306987762451,-0.59081798791885,3.56876754760742,0.35646054148674
36,1951454654,-0.12640768289566,-0.28910106420517,-116.49333190917969,0.02368226647377,-0.02139911241829,9.50303459167480,-0.60600703954697,3.58861780166626,0.20856387913227
37,1951462987,-0.12690971791744,-0.28928697109222,-116.49274444580078,0.02407662384212,-0.01945196650922,9.50279903411865,-0.68425869941711,3.51615595817566,0.38937482237816
38,1951471320,-0.12743866443634,-0.28918930888176,-116.49281311035156,0.02933600544930,-0.03054055385292,9.49731445312500,-0.68892043828964,3.55967426300049,0.30592361092567
39,1951479653,-0.12777699530125,-0.28866717219353,-116.49260711669922,0.02618325874209,-0.01201509777457,9.51413822174072,-0.66556018590927,3.60014414787292,0.33258798718452
40,1951487986,-0.12698972225189,-0.28815126419067,-116.49269104003906,0.02540270052850,-0.03248427063227,9.54422187805176,-0.53172588348389,3.60962176322937,0.30474531650543
41,1951496319,-0.12695442140102,-0.28728246688843,-116.49365997314453,0.01955720037222,-0.02865180745721,9.53777599334717,-0.62147819995880,3.64176774024963,0.20039296150208
42,1951504652,-0.12643335759640,-0.28734716773033,-116.49400329589844,0.03997549042106,-0.02423039078712,9.49974155426025,-0.56300091743469,3.54007959365845,0.27326548099518
43,1951512985,-0.12642309069633,-0.28691107034683,-116.49420166015625,0.01478382665664,-0.03283660486341,9.48333549499512,-0.62270766496658,3.58938646316528,0.28899258375168
44,1951521318,-0.12701657414436,-0.28732785582542,-116.49433135986328,0.00598518457264,-0.03232557699084,9.49941825866699,-0.69760370254517,3.49886631965637,0.29729163646698
45,1951529651,-0.12671957910061,-0.28722843527794,-116.49491882324219,0.04004127532244,-0.02052421309054,9.49876880645752,-0.58912742137909,3.54978752136230,0.24798424541950
46,1951537984,-0.12684054672718,-0.28697317838669,-116.49588775634766,0.02825037389994,-0.03526924178004,9.51674175262451,-0.64120119810104,3.57850098609924,0.19621787965298
47,1951546317,-0.12715066969395,-0.28765860199928,-116.49573516845703,0.03119574300945,-0.03140651434660,9.51343059539795,-0.66079604625702,3.45532202720642,0.33737793564796
48,1951554650,-0.12727025151253,-0.28805479407310,-116.49524688720703,0.02107719890773,-0.03513936325908,9.51366329193115,-0.64040714502335,3.49925017356873,0.37177783250809
49,1951562983,-0.12724387645721,-0.28802508115768,-116.49536895751953,0.04691004380584,-0.03322610259056,9.52056407928467,-0.62129890918732,3.54230785369873,0.30397689342499
50,1951571316,-0.12727637588978,-0.28752771019936,-116.49465942382812,0.02472466789186,-0.01364603452384,9.52858638763428,-0.62977713346481,3.60680389404297,0.39869832992554
51,1951579649,-0.12779304385185,-0.28774195909500,-116.49431610107422,0.01912692375481,-0.01978928782046,9.47611141204834,-0.68551379442215,3.51149415969849,0.35953426361084
52,1951587982,-0.12768171727657,-0.28853341937065,-116.49443817138672,0.00785691663623,-0.03158651292324,9.50184440612793,-0.61335849761963,3.45317006111145,0.29775267839432
53,1951596315,-0.12772335112095,-0.28784197568893,-116.49465942382812,0.02053626812994,-0.01137590967119,9.49499607086182,-0.62905991077423,3.62168598175049,0.28297322988510
54,1951604648,-0.12753535807133,-0.28717130422592,-116.49412536621094,0.03100140765309,-0.04507812112570,9.49499034881592,-0.60359936952591,3.62849926948547,0.37918025255203
55,1951612981,-0.12715175747871,-0.28686469793320,-116.49368286132812,0.02492869272828,-0.02119126170874,9.49881553649902,-0.57842057943344,3.57337760925293,0.36847352981567
56,1951621314,-0.12735877931118,-0.28735852241516,-116.49426269531250,0.01379624847323,-0.03994122892618,9.49975681304932,-0.65019178390503,3.48874878883362,0.24429577589035
57,1951629647,-0.12687486410141,-0.28795853257179,-116.49365997314453,0.02921703830361,-0.04515198245645,9.49568271636963,-0.56617707014084,3.46659231185913,0.38161370158195
58,1951637980,-0.12678430974483,-0.28795638680458,-116.49395751953125,0.01929153874516,-0.03184067085385,9.52411365509033,-0.61456233263016,3.54796886444092,0.27805536985397
59,1951646313,-0.12650647759438,-0.28829094767570,-116.49446105957031,0.00592116825283,-0.01460626162589,9.50225925445557,-0.59225237369537,3.49674034118652,0.25477200746536
60,1951654646,-0.12596061825752,-0.28775244951248,-116.49367523193359,0.00420565251261,-0.02906267344952,9.50819683074951,-0.55949163436890,3.61220836639404,0.40845730900764
61,1951662979,-0.12540036439896,-0.28755179047585,-116.49431610107422,0.00770971365273,-0.03450203314424,9.50381851196289,-0.55782687664032,3.56185173988342,0.24421894550323
62,1951671312,-0.12417117506266,-0.28829163312912,-116.49331665039062,0.01458186469972,-0.01630874164402,9.50298309326172,-0.47703951597214,3.45837020874023,0.43266287446022
63,1951679645,-0.12435195595026,-0.28777882456779,-116.49256896972656,0.05150443315506,-0.02526469528675,9.49727630615234,-0.64591413736343,3.59837722778320,0.41032722592354
64,1951687978,-0.12348432838917,-0.28795069456100,-116.49245452880859,0.04359726607800,-0.03491471335292,9.47729587554932,-0.52091670036316,3.52765679359436,0.32546728849411
65,1951696311,-0.12350669503212,-0.28820806741714,-116.49314117431641,0.03449217975140,-0.03735071793199,9.51300144195557,-0.62844532728195,3.50644826889038,0.24849650263786
66,1951704644,-0.12342283874750,-0.28842750191689,-116.49243927001953,0.04116973280907,-0.01956258714199,9.49645900726318,-0.61553573608398,3.52140688896179,0.39670050144196
67,1951712977,-0.12337565422058,-0.28738099336624,-116.49276733398438,0.02896328642964,-0.01629127375782,9.50913143157959,-0.61758476495743,3.66213059425354,0.27321422100067
68,1951721310,-0.12359270453453,-0.28692144155502,-116.49385070800781,0.02544002048671,-0.01433336455375,9.48605632781982,-0.65341907739639,3.60344862937927,0.18092612922192
69,1951729643,-0.12380525469780,-0.28693738579750,-116.49348449707031,0.01812456734478,-0.01692553609610,9.50487995147705,-0.64957702159882,3.53546905517578,0.36020022630692
70,1951737976,-0.12374091148376,-0.28660342097282,-116.49323272705078,0.01066746842116,-0.03357174992561,9.51670932769775,-0.61881428956985,3.58813142776489,0.34385827183723
71,1951746309,-0.12381206452847,-0.28704109787941,-116.49302673339844,0.04694851860404,-0.03604651987553,9.49105167388916,-0.63277411460876,3.48600792884827,0.34052848815918
72,1951754642,-0.12386848032475,-0.28713232278824,-116.49337005615234,0.01727428101003,-0.02171005681157,9.51213264465332,-0.63279968500137,3.53692913055420,0.27157494425774
73,1951762975,-0.12390663474798,-0.28672882914543,-116.49293518066406,0.03310526534915,-0.04808965325356,9.50390911102295,-0.62795859575272,3.58685088157654,0.37042024731636
74,1951771308,-0.12383953481913,-0.28740528225899,-116.49296569824219,0.02202281728387,-0.00916213076562,9.50099658966064,-0.61789220571518,3.46651554107666,0.30833137035370
75,1951779641,-0.12389046698809,-0.28795793652534,-116.49276733398438,0.03217443078756,-0.02413878217340,9.50162792205811,-0.63028949499130,3.47156143188477,0.34250077605247
76,1951787974,-0.12331630289555,-0.28786319494247,-116.49260711669922,0.01535722333938,-0.01653306372464,9.49658012390137,-0.55762195587158,3.55908513069153,0.33076947927475
77,1951796307,-0.12330895662308,-0.28685382008553,-116.49271392822266,0.02191339433193,-0.02909689396620,9.50556087493896,-0.62168300151825,3.65928792953491,0.30835694074631
78,1951804640,-0.12316718697548,-0.28765186667442,-116.49231719970703,0.01512156054378,-0.02105494961143,9.50437164306641,-0.60974687337875,3.45096755027771,0.35876584053040
79,1951812973,-0.12287677079439,-0.28837946057320,-116.49172210693359,0.01910628005862,-0.00790207926184,9.49891567230225,-0.58879441022873,3.45025038719177,0.38840147852898
80,1951821306,-0.12278812378645,-0.28864309191704,-116.49176025390625,0.01398154161870,-0.02317676693201,9.50362586975098,-0.61540764570236,3.51674509048462,0.30797278881073
81,1951829639,-0.12275585532188,-0.28871986269951,-116.49144744873047,0.03258649259806,-0.01314920186996,9.52548980712891,-0.62022310495377,3.52924489974976,0.34793099761009
82,1951837972,-0.12213010340929,-0.28888502717018,-116.49094390869141,0.04298744723201,-0.02393841743469,9.50055122375488,-0.55088537931442,3.52699089050293,0.37223887443542
83,1951846305,-0.12175346910954,-0.28905135393143,-116.49133300781250,0.04503266140819,-0.02293571084738,9.51876926422119,-0.57900989055634,3.51771831512451,0.27034544944763
84,1951854638,-0.12148031592369,-0.28944078087807,-116.49108886718750,0.03976047039032,-0.03117751516402,9.49165916442871,-0.59255981445312,3.50142788887024,0.34209096431732
85,1951862971,-0.12265259027481,-0.28895759582520,-116.49114227294922,0.03174289688468,-0.02005846984684,9.48769569396973,-0.76601928472519,3.59596967697144,0.31201979517937
86,1951871304,-0.12275664508343,-0.28816619515419,-116.49081420898438,0.03924363851547,-0.03110465221107,9.53627204895020,-0.63702595233917,3.64253616333008,0.35302817821503
87,1951879637,-0.12314700335264,-0.28771665692329,-116.49054718017578,0.05111672356725,-0.02105999551713,9.48312854766846,-0.67140024900436,3.59194779396057,0.35510286688805
88,1951887970,-0.12276154011488,-0.28796079754829,-116.49057006835938,0.02858873456717,-0.02112385444343,9.47054767608643,-0.57977819442749,3.51776957511902,0.30897173285484
89,1951896303,-0.12319152057171,-0.28804191946983,-116.49040985107422,0.03964692354202,-0.03801411390305,9.46980571746826,-0.67700988054276,3.52809214591980,0.33691686391830
90,1951904636,-0.12230719625950,-0.28836309909821,-116.48958587646484,0.01267888210714,-0.02230583131313,9.52511405944824,-0.51889324188232,3.50936818122864,0.41027605533600
91,1951912969,-0.12113668769598,-0.28737986087799,-116.48998260498047,0.01842662505805,-0.01543978415430,9.49723434448242,-0.48423704504967,3.65713596343994,0.27510964870453
92,1951921302,-0.12105411291122,-0.28777354955673,-116.49025726318359,0.00655791163445,-0.02919614315033,9.50728702545166,-0.61504912376404,3.49991655349731,0.27936169505119
93,1951929635,-0.12137366086245,-0.28797799348831,-116.48977661132812,0.03409835696220,-0.03141470253468,9.49621295928955,-0.66302454471588,3.51426053047180,0.37282803654671
94,1951937968,-0.12238306552172,-0.28865495324135,-116.48975372314453,0.04328333213925,-0.02133352681994,9.53236007690430,-0.74724417924881,3.46687412261963,0.31473496556282
95,1951946301,-0.12309077382088,-0.28825905919075,-116.48898315429688,0.03073257021606,-0.02565198019147,9.51778697967529,-0.70795184373856,3.58495545387268,0.39892891049385
96,1951954634,-0.12347179651260,-0.28829634189606,-116.48886108398438,0.03277550265193,-0.02341164089739,9.51834487915039,-0.67255300283432,3.54264068603516,0.32567217946053
97,1951962967,-0.12290117144585,-0.28836330771446,-116.48861694335938,0.02070407010615,-0.03227415680885,9.51022338867188,-0.55613631010056,3.52988505363464,0.35100471973419
98,1951971300,-0.12287472933531,-0.28777709603310,-116.48899841308594,0.00072978017852,-0.01128822099417,9.51082801818848,-0.62373220920563,3.61912465095520,0.26409557461739
99,1951979633,-0.12257935106754,-0.28789010643959,-116.48899841308594,0.02805250883102,-0.04216464236379,9.49579620361328,-0.58802610635757,3.52386569976807,0.32159954309464
100,1951987966,-0.12261969596148,-0.28810235857964,-116.48889160156250,0.02338925749063,-0.02544385194778,9.50065326690674,-0.62987971305847,3.52312302589417,0.32444274425507
101,1951996299,-0.12245644629002,-0.28741273283958,-116.48925781250000,0.01319702062756,-0.03796623274684,9.53279495239258,-0.60572540760040,3.62081527709961,0.26944893598557
102,1952004632,-0.12345854192972,-0.28787109255791,-116.48886108398438,0.02373205497861,-0.03542769327760,9.46776390075684,-0.74698799848557,3.49317979812622,0.35868895053864
103,1952012965,-0.12306942045689,-0.28790822625160,-116.48968505859375,0.01828818023205,-0.03578495606780,9.50097370147705,-0.57685822248459,3.53224182128906,0.21271343529224
104,1952021298,-0.12259070575237,-0.28904858231544,-116.48941040039062,0.02787549607456,-0.02483081258833,9.51377296447754,-0.56937885284424,3.41167497634888,0.34672707319260
105,1952029631,-0.12257690727711,-0.28920331597328,-116.49022674560547,0.02825270220637,-0.02535048499703,9.53739833831787,-0.62199050188065,3.51797461509705,0.22144788503647
106,1952037964,-0.12252023071051,-0.28915837407112,-116.49002838134766,0.01339298952371,-0.02394467592239,9.52546501159668,-0.61965960264206,3.55342483520508,0.33735230565071
107,1952046297,-0.12278421968222,-0.28875207901001,-116.48977661132812,0.02797151729465,-0.04794794693589,9.50897312164307,-0.65574997663498,3.58685088157654,0.34793093800545
108,1952054630,-0.12235375493765,-0.28821480274200,-116.48928833007812,0.02192280814052,-0.02539480850101,9.50311565399170,-0.57381004095078,3.61246490478516,0.37241813540459
109,1952062963,-0.12224724888802,-0.28836882114410,-116.48931121826172,0.01445481646806,-0.00239480030723,9.51640987396240,-0.61123251914978,3.52066397666931,0.32956558465958
110,1952071296,-0.12239572405815,-0.28786930441856,-116.48966979980469,0.01883493736386,-0.02100782655180,9.49752044677734,-0.64458215236664,3.60770034790039,0.27154925465584
111,1952079629,-0.12241781502962,-0.28784149885178,-116.48934173583984,0.03839258104563,-0.03545204177499,9.50413799285889,-0.62634491920471,3.54123210906982,0.34926292300224
112,1952087962,-0.12304540723562,-0.28750860691071,-116.48923492431641,0.01543667912483,-0.01884433440864,9.46236324310303,-0.70147132873535,3.58715772628784,0.32700407505035
113,1952096295,-0.12279836088419,-0.28732615709305,-116.48863220214844,0.02824339084327,-0.03309823200107,9.50772953033447,-0.59494191408157,3.56003308296204,0.38730007410049
114,1952104628,-0.12274525314569,-0.28749781847000,-116.48840332031250,0.03130396828055,-0.01005052868277,9.49360275268555,-0.61868625879288,3.52706766128540,0.34168112277985
115,1952112961,-0.12361923605204,-0.28808939456940,-116.48820495605469,0.04568687826395,-0.02517596818507,9.48834800720215,-0.72877609729767,3.46692514419556,0.33456030488014
116,1952121294,-0.12365338951349,-0.28819671273232,-116.48793792724609,0.02641552872956,-0.01157835219055,9.47576332092285,-0.63059681653976,3.53526377677917,0.34478041529655
117,1952129627,-0.12419397383928,-0.28862783312798,-116.48741912841797,0.02444024197757,-0.01320997998118,9.49473857879639,-0.68915092945099,3.48600745201111,0.37290483713150
118,1952137960,-0.12490072101355,-0.28863379359245,-116.48730468750000,0.01823490113020,-0.03634951636195,9.52719020843506,-0.70992422103882,3.54673933982849,0.32556977868080
119,1952146293,-0.12393853068352,-0.28829750418663,-116.48641967773438,0.00191875291057,-0.01427608635277,9.51725006103516,-0.50844258069992,3.57837295532227,0.42362105846405
120,1952154626,-0.12356612831354,-0.28779366612434,-116.48655700683594,0.02655906230211,-0.03471247106791,9.45723628997803,-0.58182740211487,3.60841798782349,0.29426914453506
121,1952162959,-0.12388730794191,-0.28781998157501,-116.48553466796875,0.00106074009091,-0.03205743432045,9.48238658905029,-0.66171824932098,3.53480315208435,0.44165349006653
122,1952171292,-0.12316360324621,-0.28691294789314,-116.48636627197266,0.03107818588614,-0.04835977777839,9.48943901062012,-0.54038339853287,3.65675187110901,0.21414777636528
123,1952179625,-0.12308805435896,-0.28640976548195,-116.48572540283203,0.04177913814783,-0.02325185015798,9.48030757904053,-0.61499768495560,3.59771132469177,0.39388287067413
124,1952187958,-0.12321288138628,-0.28628709912300,-116.48536682128906,0.02849312685430,-0.02739442512393,9.50882434844971,-0.64061206579208,3.56285071372986,0.35379666090012
125,1952196291,-0.12247625738382,-0.28594994544983,-116.48542022705078,0.03473640978336,-0.01269168592989,9.51235103607178,-0.53567045927048,3.57832121849060,0.31834650039673
126,1952204624,-0.12225477397442,-0.28607228398323,-116.48543548583984,0.04164493083954,-0.02055347897112,9.48595809936523,-0.59955233335495,3.53370118141174,0.30945837497711
127,1952212957,-0.12237149477005,-0.28602504730225,-116.48461914062500,0.02372696250677,-0.00369757879525,9.50926685333252,-0.63733345270157,3.54353761672974,0.42149507999420
128,1952221290,-0.12213573604822,-0.28548672795296,-116.48386383056641,0.01788052357733,-0.02893388457596,9.51040840148926,-0.59796428680420,3.61215758323669,0.40423104166985
129,1952229623,-0.12265472114086,-0.28539881110191,-116.48368835449219,0.03147451952100,-0.03331710025668,9.51619815826416,-0.68630784749985,3.54848122596741,0.34052845835686
130,1952237956,-0.12322132289410,-0.28512680530548,-116.48417663574219,0.03383656963706,-0.03601867705584,9.49354553222656,-0.69419693946838,3.58044743537903,0.25420847535133
131,1952246289,-0.12373478710651,-0.28474763035774,-116.48377990722656,0.02214612066746,-0.01361009478569,9.52299213409424,-0.68635898828506,3.58467364311218,0.35981595516205
132,1952254622,-0.12432948499918,-0.28465908765793,-116.48332977294922,0.02574942819774,-0.00702576665208,9.51216506958008,-0.69591313600540,3.55759954452515,0.36765390634537
133,1952262955,-0.12441258877516,-0.28425231575966,-116.48386383056641,0.03732430562377,-0.00606582919136,9.50492000579834,-0.63638567924500,3.58718371391296,0.25992044806480
134,1952271288,-0.12404378503561,-0.28427189588547,-116.48474884033203,0.03661677986383,-0.02452634833753,9.49391841888428,-0.58154565095901,3.54632949829102,0.20592565834522
135,1952279621,-0.12433174997568,-0.28421878814697,-116.48520660400391,0.03895982354879,-0.02539407089353,9.52660655975342,-0.65966904163361,3.54469013214111,0.25495129823685
136,1952287954,-0.12519608438015,-0.28411185741425,-116.48435974121094,0.02005852386355,-0.03475839272141,9.49564552307129,-0.72898113727570,3.55952048301697,0.41534763574600
137,1952296287,-0.12570488452911,-0.28387659788132,-116.48443603515625,0.02417531609535,-0.03634447604418,9.49344921112061,-0.68489885330200,3.56763982772827,0.30095440149307
138,1952304620,-0.12567546963692,-0.28376060724258,-116.48462677001953,0.01507748197764,-0.02840844355524,9.50904846191406,-0.62270772457123,3.56095528602600,0.28963297605515
139,1952312953,-0.12640841305256,-0.28403174877167,-116.48435974121094,0.02637715265155,-0.02565052546561,9.50161170959473,-0.71225500106812,3.50649905204773,0.35666540265083
140,1952321286,-0.12705114483833,-0.28384059667587,-116.48394775390625,0.01571837812662,-0.03382217139006,9.52545833587646,-0.70390480756760,3.57063698768616,0.36101981997490
141,1952329619,-0.12636242806911,-0.28368359804153,-116.48405456542969,0.01613401994109,-0.01621771976352,9.51661777496338,-0.54153621196747,3.55721545219421,0.31488862633705
142,1952337952,-0.12724630534649,-0.28307011723518,-116.48474121093750,0.02014102041721,-0.02375466749072,9.48300075531006,-0.73115831613541,3.62191653251648,0.23179599642754
143,1952346285,-0.12663663923740,-0.28301975131035,-116.48513793945312,0.03319324553013,-0.03497406095266,9.50898742675781,-0.55185872316360,3.54369091987610,0.28366482257843
144,1952354618,-0.12630334496498,-0.28318721055984,-116.48441314697266,0.03301206603646,-0.01716231554747,9.50187969207764,-0.58561831712723,3.52773356437683,0.39772507548332
145,1952362951,-0.12625551223755,-0.28345370292664,-116.48500061035156,0.01367439702153,-0.03003459237516,9.51452159881592,-0.61812263727188,3.50550007820129,0.24742066860199
146,1952371284,-0.12664486467838,-0.28284180164337,-116.48502349853516,0.02247802540660,-0.01585585996509,9.49737834930420,-0.67375683784485,3.62132740020752,0.31030362844467
147,1952379617,-0.12681388854980,-0.28268283605576,-116.48557281494141,0.04791930317879,-0.02110550180078,9.52424907684326,-0.64427483081818,3.55731749534607,0.25262039899826
148,1952387950,-0.12683789432049,-0.28288573026657,-116.48498535156250,0.03614271059632,-0.01918967999518,9.46958446502686,-0.62903439998627,3.52368640899658,0.38545584678650
149,1952396283,-0.12685999274254,-0.28249868750572,-116.48420715332031,0.01690723188221,-0.03024160489440,9.49601745605469,-0.62578129768372,3.58306002616882,0.39982536435127
150,1952404616,-0.12673272192478,-0.28302544355392,-116.48356628417969,0.00618255976588,-0.01571121811867,9.50659370422363,-0.61056649684906,3.48567461967468,0.38957968354225
151,1952412949,-0.12610460817814,-0.28272929787636,-116.48352050781250,0.02900799736381,-0.02063254639506,9.51044750213623,-0.54960465431213,3.57389020919800,0.32603082060814
152,1952421282,-0.12520571053028,-0.28273418545723,-116.48365783691406,0.01344775315374,-0.03810752928257,9.51102924346924,-0.51715141534805,3.54696989059448,0.29562672972679
153,1952429615,-0.12562225759029,-0.28240755200386,-116.48353576660156,0.02937005273998,-0.02520009316504,9.51691436767578,-0.67414098978043,3.57809066772461,0.33532872796059
154,1952437948,-0.12530009448528,-0.28254944086075,-116.48275756835938,0.02277416735888,-0.03889923542738,9.49317073822021,-0.58728325366974,3.53172945976257,0.40579354763031
155,1952446281,-0.12577803432941,-0.28211849927902,-116.48244476318359,0.02619692496955,-0.03367767110467,9.51418018341064,-0.68228632211685,3.58918166160583,0.35323306918144
156,1952454614,-0.12557429075241,-0.28221955895424,-116.48144531250000,0.02743295021355,-0.04667288437486,9.48571777343750,-0.59985983371735,3.53559708595276,0.43156147003174
157,1952462947,-0.12548336386681,-0.28118032217026,-116.48107910156250,0.03149740025401,-0.02693768776953,9.50215816497803,-0.61294853687286,3.66400027275085,0.35717764496803
158,1952471280,-0.12486555427313,-0.28102368116379,-116.48113250732422,0.01865663006902,-0.02683009952307,9.49088191986084,-0.55393344163895,3.56635951995850,0.30587235093117
159,1952479613,-0.12526412308216,-0.28093862533569,-116.48120117187500,0.00876973289996,-0.03148518130183,9.52486991882324,-0.67070871591568,3.54755878448486,0.31071349978447
160,1952487946,-0.12513868510723,-0.28131043910980,-116.48113250732422,0.02139485627413,-0.02418592013419,9.52185535430908,-0.61023354530334,3.50332307815552,0.32131779193878
161,1952496279,-0.12476414442062,-0.28038859367371,-116.48068237304688,0.03261025995016,-0.03174438700080,9.52109146118164,-0.57988059520721,3.64827346801758,0.36665493249893
162,1952504612,-0.12503440678120,-0.28014352917671,-116.48023223876953,0.01967567577958,-0.02823720872402,9.49358558654785,-0.65884929895401,3.57706618309021,0.36839672923088
163,1952512945,-0.12556642293930,-0.27937075495720,-116.47978210449219,0.02945396862924,-0.02508872561157,9.51953125000000,-0.68848496675491,3.63193178176880,0.36557912826538
164,1952521278,-0.12567785382271,-0.27880483865738,-116.47964477539062,0.02215041033924,-0.01771133206785,9.48618507385254,-0.63817858695984,3.61566662788391,0.33007779717445
165,1952529611,-0.12560620903969,-0.27918404340744,-116.47964477539062,-0.00155721674673,-0.03077064082026,9.48893833160400,-0.61625295877457,3.49164319038391,0.31668162345886
166,1952537944,-0.12637440860271,-0.27860388159752,-116.47976684570312,0.04655760526657,-0.03492241725326,9.50972652435303,-0.71858173608780,3.61717820167542,0.29816249012947
167,1952546277,-0.12650686502457,-0.27908515930176,-116.47968292236328,0.02702087908983,-0.03225359693170,9.51331520080566,-0.63902390003204,3.48114085197449,0.33494451642036
168,1952554610,-0.12641714513302,-0.27880692481995,-116.47942352294922,0.03915128856897,-0.02534666843712,9.52209472656250,-0.61579179763794,3.58021688461304,0.34319230914116
169,1952562943,-0.12705156207085,-0.27891623973846,-116.47978973388672,0.01073608454317,-0.02435426227748,9.52391147613525,-0.70062607526779,3.52617073059082,0.27731251716614
170,1952571276,-0.12669461965561,-0.27829855680466,-116.47917938232422,0.02023301832378,-0.02436709031463,9.48410892486572,-0.58313363790512,3.62235212326050,0.38555824756622
171,1952579609,-0.12642073631287,-0.27846100926399,-116.47927093505859,0.01504025235772,-0.05074418708682,9.51754570007324,-0.59074121713638,3.51943445205688,0.30810084939003
172,1952587942,-0.12607614696026,-0.27934604883194,-116.47937011718750,0.03716576844454,-0.01841112598777,9.49325370788574,-0.58502912521362,3.44105505943298,0.29990428686142
173,1952596275,-0.12547795474529,-0.27909782528877,-116.47975158691406,0.03924944996834,-0.00781783275306,9.48553466796875,-0.55388218164444,3.56953573226929,0.26768153905869
174,1952604608,-0.12498822063208,-0.27858650684357,-116.47985076904297,0.01488072611392,-0.01297533884645,9.50537395477295,-0.56689429283142,3.60872530937195,0.30121058225632
175,1952612941,-0.12452255189419,-0.27748316526413,-116.48056030273438,0.02159646153450,-0.03396718576550,9.50763988494873,-0.56902021169662,3.67189002037048,0.22969563305378
176,1952621274,-0.12452035397291,-0.27732568979263,-116.48087310791016,0.01344807818532,-0.03332911431789,9.48026561737061,-0.62534600496292,3.56641101837158,0.27564761042595
177,1952629607,-0.12494994699955,-0.27712103724480,-116.48017883300781,0.02291012369096,-0.03550846129656,9.48058891296387,-0.67524242401123,3.56113409996033,0.40005588531494
178,1952637940,-0.12483201920986,-0.27741205692291,-116.47988891601562,0.03701576963067,-0.03243135288358,9.50063514709473,-0.61238509416580,3.51290249824524,0.34852007031441
179,1952646273,-0.12552559375763,-0.27742341160774,-116.47978973388672,0.03508351743221,-0.01730275526643,9.51896095275879,-0.70841300487518,3.53715968132019,0.32398167252541
180,1952654606,-0.12517292797565,-0.27764210104942,-116.48001098632812,0.01639054529369,-0.02050407789648,9.51911354064941,-0.58254462480545,3.52284121513367,0.28612384200096
181,1952662939,-0.12502725422382,-0.27804571390152,-116.47980499267578,0.01967653445899,-0.02824795991182,9.51309204101562,-0.60636579990387,3.49100232124329,0.35891947150230
182,1952671272,-0.12420000135899,-0.27785974740982,-116.47943878173828,0.03334494307637,-0.01983296684921,9.48859691619873,-0.52778130769730,3.57007408142090,0.35687038302422
183,1952679605,-0.12441008538008,-0.27830496430397,-116.47924804687500,0.02783492580056,-0.02343937382102,9.51055431365967,-0.64993560314178,3.48531651496887,0.33689126372337
184,1952687938,-0.12359483540058,-0.27765399217606,-116.47912597656250,0.02993643842638,-0.02803706936538,9.52983093261719,-0.52796059846878,3.62491369247437,0.32677361369133
185,1952696271,-0.12222126126289,-0.30998507142067,-116.50152587890625,0.03320996463299,-0.03759183362126,9.51000404357910,-0.64191824197769,3.47578740119934,0.36614266037941
186,1952704604,-0.12189573049545,-0.30937030911446,-116.50169372558594,0.02206970006227,-0.03349195793271,9.51290702819824,-0.58712947368622,3.62102007865906,0.29309085011482
187,1952712937,-0.12219919264317,-0.30930206179619,-116.50144195556641,0.01731150597334,-0.03376757353544,9.53103065490723,-0.66007888317108,3.54886531829834,0.35146573185921
188,1952721270,-0.12149838358164,-0.30919265747070,-116.50167846679688,0.02167773246765,-0.02773383632302,9.48664855957031,-0.54417443275452,3.56305527687073,0.28553470969200
189,1952729603,-0.12177648395300,-0.30933412909508,-116.50219726562500,0.02118407562375,-0.02385877631605,9.50234794616699,-0.65751737356186,3.52122712135315,0.25449019670486
190,1952737936,-0.12128676474094,-0.30978932976723,-116.50196075439453,0.02759971469641,-0.03494860604405,9.52400875091553,-0.56727856397629,3.49638175964355,0.34209096431732
191,1952746269,-0.12148056179285,-0.31004488468170,-116.50214385986328,0.03124011307955,-0.03337007388473,9.54567432403564,-0.64704120159149,3.50916314125061,0.29621583223343
192,1952754602,-0.12171902507544,-0.31005343794823,-116.50225067138672,0.00294683128595,-0.02594677731395,9.51072692871094,-0.65531462430954,3.54848122596741,0.30087763071060
193,1952762935,-0.12145118415356,-0.30998069047928,-116.50204467773438,0.03143946453929,-0.01193505246192,9.52468204498291,-0.59204745292664,3.54868602752686,0.34014427661896
194,1952771268,-0.12056140601635,-0.30931890010834,-116.50162506103516,0.02632170543075,-0.01618416793644,9.49870967864990,-0.51794540882111,3.62913990020752,0.36481073498726
195,1952779601,-0.12027380615473,-0.30830326676369,-116.50154113769531,0.01954975910485,-0.02370683476329,9.50634670257568,-0.58874315023422,3.66179800033569,0.32444268465042
196,1952787934,-0.12047725170851,-0.30783930420876,-116.50151062011719,0.02505691722035,-0.01954515837133,9.48870182037354,-0.65211272239685,3.60508823394775,0.31739878654480
197,1952796267,-0.12079628556967,-0.30686205625534,-116.50160980224609,0.00575721357018,-0.02205748856068,9.49444961547852,-0.66125708818436,3.65764880180359,0.30920222401619
198,1952804600,-0.12015799432993,-0.30688670277596,-116.50131225585938,0.00257467338815,-0.02727402187884,9.50159263610840,-0.54968154430389,3.54671359062195,0.34995451569557
199,1952812933,-0.12122879177332,-0.30682626366615,-116.50118255615234,0.01879164204001,-0.03034244105220,9.51517963409424,-0.75326347351074,3.54707217216492,0.32718342542648
200,1952821266,-0.12118013948202,-0.30646753311157,-116.50155639648438,0.03286221250892,-0.03555322438478,9.50184345245361,-0.61930090188980,3.59386897087097,0.26967942714691
201,1952829599,-0.12145645171404,-0.30691799521446,-116.50092315673828,0.01620321907103,-0.03374103456736,9.49444961547852,-0.65703070163727,3.48585391044617,0.40146473050117
202,1952837932,-0.12133189290762,-0.30671632289886,-116.50069427490234,0.01425142679363,-0.02682497538626,9.50733280181885,-0.61146301031113,3.57424902915955,0.34357658028603
203,1952846265,-0.12121423333883,-0.30633869767189,-116.50145721435547,0.01948652788997,-0.04183735325933,9.48660373687744,-0.61048966646194,3.58398246765137,0.22774897515774
204,1952854598,-0.12169185280800,-0.30666771531105,-116.50190734863281,0.02947511523962,-0.02137263491750,9.50215625762939,-0.68431001901627,3.51108431816101,0.26068890094757
205,1952862931,-0.12175218015909,-0.30659958720207,-116.50183105468750,0.02443863265216,-0.03451686725020,9.50884342193604,-0.63139092922211,3.54796886444092,0.32610768079758
206,1952871264,-0.12168467789888,-0.30672076344490,-116.50069427490234,0.02014438435435,-0.02146152965724,9.51434230804443,-0.61625289916992,3.53534102439880,0.45136120915413
207,1952879597,-0.12201491743326,-0.30664634704590,-116.50174713134766,0.02600222080946,-0.02842844277620,9.51153278350830,-0.66497123241425,3.55073523521423,0.19224765896797
208,1952887930,-0.12219402194023,-0.30624249577522,-116.50214385986328,0.02168590575457,-0.03053869865835,9.48770046234131,-0.64739978313446,3.59786486625671,0.26763030886650
209,1952896263,-0.12213580310345,-0.30588635802269,-116.50164794921875,0.02020614966750,-0.03832792118192,9.50178337097168,-0.61776405572891,3.58208632469177,0.38181850314140
210,1952904596,-0.12146045267582,-0.30560421943665,-116.50209808349609,0.01396909914911,-0.03543490916491,9.48891353607178,-0.54589062929153,3.58388018608093,0.26235380768776
211,1952912929,-0.12147418409586,-0.30474367737770,-116.50177001953125,0.00123958778568,-0.02470881678164,9.50080108642578,-0.62552523612976,3.64253616333008,0.35799735784531
212,1952921262,-0.12218621373177,-0.30439269542694,-116.50185394287109,0.01872439682484,-0.02565249614418,9.48687744140625,-0.71156340837479,3.59269118309021,0.30369517207146
213,1952929595,-0.12215258181095,-0.30432173609734,-116.50176239013672,0.01279604807496,-0.01247879117727,9.49572277069092,-0.62004381418228,3.54817390441895,0.33607158064842
214,1952937928,-0.12211959809065,-0.30444785952568,-116.50160980224609,0.03379597142339,-0.01978741586208,9.52810192108154,-0.62160629034042,3.53413724899292,0.33286982774734
215,1952946261,-0.12247902154922,-0.30362948775291,-116.50209808349609,0.03030003421009,-0.01371845044196,9.49403858184814,-0.66778868436813,3.63815617561340,0.25812745094299
216,1952954594,-0.12246785312891,-0.30315878987312,-116.50163269042969,0.03110882081091,-0.03348430991173,9.48573398590088,-0.62424445152283,3.60570263862610,0.36919069290161
217,1952962927,-0.12266318500042,-0.30252322554588,-116.50141906738281,0.03249849751592,-0.03586390241981,9.50891685485840,-0.64786082506180,3.61715245246887,0.33591786026955
218,1952971260,-0.12286701053381,-0.30234622955322,-116.50244140625000,0.01900626718998,-0.03149784728885,9.48860073089600,-0.65065282583237,3.57222557067871,0.19196587800980
219,1952979593,-0.12227968871593,-0.30204677581787,-116.50248718261719,0.01184805948287,-0.03866763412952,9.54243659973145,-0.55349802970886,3.57576036453247,0.30935594439507
220,1952987926,-0.12151029706001,-0.30238634347916,-116.50266265869141,0.01609514839947,-0.02014246955514,9.52136707305908,-0.53454351425171,3.50931692123413,0.29506319761276
221,1952996259,-0.12114602327347,-0.30241292715073,-116.50283813476562,0.00271625816822,-0.02545524574816,9.48336696624756,-0.58018797636032,3.53674936294556,0.29572910070419
222,1953004592,-0.12082229554653,-0.30200594663620,-116.50274658203125,0.02753510326147,-0.01858829520643,9.50471019744873,-0.58659148216248,3.59963178634644,0.32572337985039
223,1953012925,-0.12042666971684,-0.30230927467346,-116.50251007080078,0.04200103133917,-0.01430145837367,9.47708225250244,-0.57719117403030,3.50240063667297,0.34675270318985
224,1953021258,-0.12032332271338,-0.30249342322350,-116.50256347656250,0.02477789111435,-0.01759334653616,9.48766517639160,-0.61284625530243,3.52870702743530,0.30774226784706
225,1953029591,-0.12010687589645,-0.30260172486305,-116.50286865234375,0.02973492071033,-0.02792933583260,9.48873805999756,-0.59888648986816,3.52704215049744,0.27738937735558
226,1953037924,-0.12029039859772,-0.30265721678734,-116.50309753417969,0.04068162664771,-0.04145211353898,9.50084209442139,-0.64882147312164,3.54344749450684,0.28595730662346
227,1953046257,-0.11991300433874,-0.30226123332977,-116.50315093994141,0.03183213621378,-0.01666209474206,9.50160026550293,-0.57824134826660,3.58641529083252,0.31593877077103
228,1953054590,-0.12026253342628,-0.30274522304535,-116.50323486328125,0.02218189090490,-0.02995906025171,9.54060077667236,-0.66814738512039,3.49248838424683,0.30420747399330
229,1953062923,-0.12086201459169,-0.30232378840446,-116.50359344482422,0.04765053093433,-0.02895165048540,9.51819705963135,-0.69609242677689,3.58979630470276,0.27554512023926
230,1953071256,-0.12059455364943,-0.30238527059555,-116.50302886962891,0.00333086098544,-0.01923093944788,9.49115848541260,-0.59442949295044,3.54246139526367,0.38222837448120
231,1953079589,-0.12064196914434,-0.30176174640656,-116.50397491455078,0.00664185732603,-0.03812974318862,9.50005435943604,-0.62905991077423,3.61456513404846,0.21004951000214
232,1953087922,-0.12092648446560,-0.30101984739304,-116.50406646728516,0.02584918029606,-0.00183941272553,9.48294448852539,-0.66015559434891,3.63910341262817,0.30336216092110
233,1953096255,-0.12072978168726,-0.30070492625237,-116.50461578369141,0.02683747373521,-0.00881554279476,9.48613452911377,-0.60119169950485,3.57816791534424,0.25705167651176
234,1953104588,-0.12043662369251,-0.30101677775383,-116.50397491455078,0.04080094397068,-0.02217537350953,9.49573612213135,-0.59061306715012,3.51190400123596,0.38904181122780
235,1953112921,-0.12063793838024,-0.30080366134644,-116.50446319580078,0.03789915516973,-0.00878144428134,9.51612186431885,-0.64901345968246,3.56594967842102,0.25769200921059
236,1953121254,-0.12059587240219,-0.30051973462105,-116.50390625000000,0.04916815832257,-0.01881013624370,9.51212596893311,-0.62091469764709,3.58452010154724,0.38220280408859
237,1953129587,-0.12044034153223,-0.30145707726479,-116.50371551513672,0.05229424312711,-0.03354021534324,9.49650478363037,-0.60559737682343,3.42653179168701,0.34780290722847
238,1953137920,-0.12027668207884,-0.30133873224258,-116.50385284423828,0.04150700196624,-0.02695917338133,9.47497749328613,-0.60513627529144,3.56461811065674,0.29818812012672
239,1953146253,-0.12016059458256,-0.30154785513878,-116.50450134277344,0.01216167025268,-0.03239603340626,9.51238822937012,-0.61084836721420,3.51443982124329,0.24316874146461
240,1953154586,-0.12039957195520,-0.30199900269508,-116.50485992431641,0.01964643038809,-0.03372675180435,9.50811958312988,-0.65564751625061,3.49712419509888,0.26967945694923
241,1953162919,-0.12078052014112,-0.30185627937317,-116.50475311279297,0.01488425303251,-0.03009444847703,9.52817535400391,-0.66906940937042,3.55662631988525,0.33189648389816
242,1953171252,-0.12124315649271,-0.30208525061607,-116.50485992431641,0.01768502593040,-0.03120896592736,9.48924350738525,-0.68072396516800,3.52271318435669,0.30215835571289
243,1953179585,-0.12117973715067,-0.30186834931374,-116.50447845458984,0.02356229349971,-0.03292271122336,9.48424530029297,-0.61714935302734,3.56607818603516,0.37387821078300
244,1953187918,-0.12151753902435,-0.30191209912300,-116.50457000732422,0.03845321014524,-0.02091857232153,9.51528453826904,-0.66589331626892,3.54527926445007,0.30177414417267
245,1953196251,-0.12077152729034,-0.30130866169930,-116.50468444824219,0.02423306927085,-0.02276422455907,9.50482368469238,-0.53592664003372,3.61205506324768,0.30128744244576
246,1953204584,-0.12057110667229,-0.30088487267494,-116.50468444824219,0.03380405902863,-0.02722329646349,9.50182914733887,-0.60247236490250,3.60086178779602,0.31547772884369
247,1953212917,-0.12129534035921,-0.30113905668259,-116.50475311279297,0.02709073945880,-0.03541981056333,9.49127578735352,-0.70977050065994,3.50865101814270,0.31611809134483
248,1953221250,-0.12205305695534,-0.30112987756729,-116.50458526611328,0.01350230909884,-0.02426314540207,9.50877094268799,-0.71765971183777,3.55209255218506,0.33358702063560
249,1953229583,-0.12197691947222,-0.30073678493500,-116.50439453125000,0.03495404869318,-0.02572980336845,9.50110054016113,-0.61433178186417,3.58720946311951,0.34798219799995
250,1953237916,-0.12174475193024,-0.30102914571762,-116.50394439697266,0.02797934785485,-0.03285819292068,9.51272201538086,-0.59655553102493,3.51500320434570,0.36839675903320
251,1953246249,-0.12166287750006,-0.30062106251717,-116.50411224365234,0.03151827305555,-0.01540169958025,9.49944782257080,-0.61512583494186,3.58971953392029,0.30320850014687
252,1953254582,-0.12177824229002,-0.30104023218155,-116.50447845458984,0.03795123100281,-0.02567203715444,9.52786540985107,-0.64081692695618,3.49904561042786,0.26950019598007
253,1953262915,-0.12199994921684,-0.30110505223274,-116.50444030761719,0.01354016736150,-0.03195490315557,9.51062202453613,-0.64939773082733,3.53336882591248,0.32549294829369
254,1953271248,-0.12193097919226,-0.30061441659927,-116.50404357910156,0.02146929129958,-0.02075444906950,9.47336673736572,-0.61699563264847,3.60872530937195,0.36260789632797
255,1953279581,-0.12252840399742,-0.29996120929718,-116.50427246093750,0.02626069635153,-0.01948811486363,9.47795867919922,-0.69778299331665,3.61817717552185,0.29357755184174
256,1953287914,-0.12218045443296,-0.29971840977669,-116.50421905517578,0.02696915902197,-0.01804005540907,9.51727104187012,-0.58331292867661,3.57880783081055,0.32134339213371
257,1953296247,-0.12148081511259,-0.29935362935066,-116.50431060791016,0.01886525377631,-0.03011775203049,9.52045154571533,-0.54038357734680,3.58413624763489,0.30920225381851
258,1953304580,-0.12194415926933,-0.29931780695915,-116.50413513183594,0.01502264197916,-0.03229004889727,9.52311897277832,-0.68074953556061,3.55398821830750,0.33489331603050
259,1953312913,-0.12312431633472,-0.29865953326225,-116.50453186035156,0.02326786331832,-0.01633631996810,9.52242851257324,-0.76701813936234,3.61879134178162,0.27265068888664
260,1953321246,-0.12388881295919,-0.29907131195068,-116.50485992431641,0.04066528007388,-0.05910503119230,9.53363609313965,-0.71827429533005,3.50127363204956,0.27485349774361
261,1953329579,-0.12012327462435,-0.29958513379097,-116.50548553466797,0.04260914772749,-0.05486517772079,9.47759723663330,-0.17169220745564,3.47773432731628,0.25100669264793
262,1953337912,-0.12227874249220,-0.29796737432480,-116.50527191162109,-0.00768975168467,0.12146058678627,9.54189300537109,-0.88520222902298,3.74483919143677,0.34203964471817
263,1953346245,-0.12294742465019,-0.30105310678482,-116.50534057617188,0.01644396223128,-0.31353467702866,9.43494510650635,-0.70380228757858,3.16905713081360,0.32108724117279
264,1953354578,-0.11508415639400,-0.29575988650322,-116.50722503662109,0.09801007062197,0.38756480813026,9.53241443634033,0.31639987230301,4.18550729751587,0.08751104772091
265,1953362911,-0.12688069045544,-0.30331757664680,-116.50428771972656,-0.08321001380682,-0.56485909223557,9.46173477172852,-2.03725409507751,2.63213181495667,0.67820090055466
266,1953371244,-0.11633095890284,-0.29339355230331,-116.50891876220703,-0.00339489476755,0.80528426170349,9.66478538513184,0.63619357347488,4.74205303192139,-0.23813556134701
267,1953379577,-0.11702005565166,-0.30529022216797,-116.50289154052734,0.38104122877121,-0.96365714073181,9.16859436035156,-0.70159959793091,2.11088204383850,1.05257856845856
268,1953387910,-0.12943185865879,-0.29983904957771,-116.50729370117188,-0.61668193340302,0.32264304161072,9.91554641723633,-2.11778521537781,4.20474338531494,-0.21221394836903
269,1953396243,-0.12631292641163,-0.29102587699890,-116.51174163818359,0.30939784646034,0.57365083694458,9.43040180206299,-0.25260761380196,4.60009908676147,-0.20058508217335
270,1953404576,-0.10928522050381,-0.29847109317780,-116.50726318359375,0.39341962337494,-0.00596432294697,9.33035755157471,1.42004036903381,2.65597820281982,0.84781831502914
271,1953412909,-0.10688656568527,-0.30168023705482,-116.50306701660156,-0.03890812024474,-0.71020179986954,9.48497867584229,-0.33374071121216,3.15395784378052,0.82308799028397
272,1953421242,-0.11304931342602,-0.30126610398293,-116.50435638427734,0.03192479163408,-0.43269309401512,9.45383834838867,-1.36516165733337,3.59988784790039,0.15984560549259
273,1953429575,-0.12012851238251,-0.30064335465431,-116.50658416748047,0.05848220363259,-0.23448960483074,9.41749477386475,-1.47568726539612,3.61464238166809,0.05820834636688
274,1953437908,-0.12275553494692,-0.30048078298569,-116.50850677490234,0.05788973346353,-0.16852705180645,9.45652866363525,-0.94160485267639,3.57025289535522,0.08320783823729
275,1953446241,-0.12099285423756,-0.30053740739822,-116.50798797607422,0.09345573186874,0.03690631687641,9.47155189514160,-0.41272220015526,3.53226733207703,0.38668531179428
276,1953454574,-0.11476197093725,-0.29883950948715,-116.50688171386719,0.11535160243511,0.19652695953846,9.47459888458252,0.12290991097689,3.75283122062683,0.44887661933899
277,1953462907,-0.10550536960363,-0.29692694544792,-116.50646209716797,-0.00319494819269,0.51282751560211,9.50959682464600,0.48796397447586,3.77124762535095,0.38422635197639
278,1953471240,-0.10325328260660,-0.29313996434212,-116.50850677490234,-0.36051481962204,0.71809750795364,9.75319099426270,-0.35660135746002,4.00520801544189,0.07040072232485
279,1953479573,-0.11873328685760,-0.29154044389725,-116.51216888427734,-0.43887293338776,0.13878424465656,9.81380367279053,-2.48478603363037,3.73280119895935,-0.11867076158524
280,1953487906,-0.13577616214752,-0.29459822177887,-116.51320648193359,0.11936087906361,-1.01941967010498,9.54612541198730,-2.67077040672302,3.18350315093994,0.18922515213490
281,1953496239,-0.12609331309795,-0.29954215884209,-116.51132202148438,0.80635023117065,-0.72642403841019,9.03343391418457,0.53955096006393,2.94621300697327,0.55755782127380
282,1953504572,-0.10399383306503,-0.29509198665619,-116.51147460937500,-0.12496810406446,1.16744124889374,9.49720668792725,2.02509999275208,4.08420324325562,0.29895654320717
283,1953512905,-0.12330245971680,-0.29120197892189,-116.51477813720703,-0.89629036188126,0.49419590830803,9.99053573608398,-2.94274282455444,4.00664281845093,-0.06862054020166
284,1953521238,-0.13608130812645,-0.29768061637878,-116.51296234130859,0.81098991632462,-1.69448339939117,9.17145633697510,-2.15817880630493,2.77311253547668,0.53186684846878
285,1953529571,-0.10208015888929,-0.29462891817093,-116.51286315917969,0.27459695935249,1.05720353126526,9.37461471557617,3.45721769332886,3.90505695343018,0.34239828586578
286,1953537904,-0.12882554531097,-0.29201230406761,-116.51615905761719,-1.02337610721588,0.29686799645424,10.00726318359375,-3.83783221244812,3.86571335792542,-0.07912237197161
287,1953546237,-0.12572522461414,-0.29777491092682,-116.51206207275391,1.26552152633667,-1.53074324131012,8.80253791809082,-0.24958509206772,2.84800839424133,0.81244510412216
288,1953554570,-0.10727370530367,-0.29051977396011,-116.51690673828125,-0.80796599388123,1.92207062244415,10.13528251647949,1.58584141731262,4.42113256454468,-0.26518419384956
289,1953562903,-0.14238291978836,-0.29642251133919,-116.51577758789062,0.41257187724113,-2.04325056076050,9.00879478454590,-4.83688879013062,2.83128213882446,0.46555152535439
290,1953571236,-0.09578484296799,-0.29160091280937,-116.51622772216797,0.02299610711634,1.73727548122406,9.77672958374023,4.96697187423706,4.12892532348633,0.26419803500175
291,1953579569,-0.14901319146156,-0.29516330361366,-116.51585388183594,-0.24694417417049,-1.38539814949036,9.42562675476074,-7.01261568069458,3.11293697357178,0.37203404307365
292,1953587902,-0.09553854167461,-0.29241394996643,-116.51663208007812,0.41663610935211,1.15455555915833,9.43314361572266,5.79121160507202,3.88090252876282,0.21973168849945
293,1953596235,-0.15486946702003,-0.29536578059196,-116.51550292968750,-0.36659094691277,-1.12267243862152,9.73546886444092,-7.74336242675781,3.18378543853760,0.44982436299324
294,1953604568,-0.09091661870480,-0.29187059402466,-116.51696014404297,0.33087643980980,1.02809119224548,9.24346828460693,7.04835987091064,3.97006630897522,0.13817600905895
295,1953612901,-0.15916821360588,-0.29575008153915,-116.51364135742188,-0.02878609672189,-1.33915996551514,9.58592510223389,-8.81152915954590,3.07400321960449,0.72215503454208
296,1953621234,-0.08352943509817,-0.29114574193954,-116.51838684082031,-0.17978118360043,1.65001606941223,9.71268844604492,8.44802474975586,4.10318326950073,-0.25158306956291
297,1953629567,-0.16773106157780,-0.29720127582550,-116.51125335693359,0.56021392345428,-1.96011185646057,8.80648231506348,-10.72340011596680,2.81181550025940,1.17977881431580
298,1953637900,-0.08846022933722,-0.29035860300064,-116.51928710937500,-0.87712109088898,2.33204126358032,10.94142818450928,8.88205623626709,4.37423229217529,-0.64850115776062
299,1953646233,-0.15756355226040,-0.29566037654877,-116.51052856445312,1.21533501148224,-2.65926003456116,7.29765367507935,-8.91139698028564,2.90095329284668,1.37426793575287
300,1953654566,-0.10438416898251,-0.29056471586227,-116.51951599121094,-1.15914535522461,2.32311987876892,12.03211402893066,5.74943542480469,4.16532325744629,-0.76304817199707
301,1953662899,-0.12379994243383,-0.29277759790421,-116.51343536376953,0.99614071846008,-1.67822730541229,6.98214960098267,-2.94960737228394,3.27317905426025,1.04614949226379
302,1953671232,-0.14897963404655,-0.29398095607758,-116.51431274414062,-0.54491055011749,0.67764574289322,11.60874652862549,-3.64667296409607,3.40516901016235,0.20856390893459
303,1953679565,-0.08750995993614,-0.28903216123581,-116.51830291748047,-0.03099841997027,0.44622245430946,8.51454162597656,6.74895524978638,4.13453531265259,-0.14443869888783
304,1953687898,-0.16536486148834,-0.29450112581253,-116.51023101806641,0.73795187473297,-1.66672444343567,8.87703037261963,-9.96294021606445,2.89137411117554,1.28177499771118
305,1953696231,-0.09038267284632,-0.28827908635139,-116.51963043212891,-1.16121864318848,2.37742805480957,11.59016227722168,8.36798000335693,4.28968095779419,-0.81955313682556
306,1953704564,-0.13905812799931,-0.29153472185135,-116.51078796386719,1.17645227909088,-2.19484257698059,6.80000257492065,-6.46236848831177,3.15648055076599,1.37396037578583
307,1953712897,-0.13633048534393,-0.29178401827812,-116.51429748535156,-0.61152201890945,1.06598651409149,11.84871387481689,-0.29925110936165,3.51131439208984,-0.09710355848074
308,1953721230,-0.08807630091906,-0.28818359971046,-116.51600646972656,-0.04581085592508,0.27923679351807,8.29390430450439,5.16417598724365,3.98223209381104,0.10841224342585
309,1953729563,-0.16857649385929,-0.29399728775024,-116.50726318359375,0.74791163206100,-1.54828321933746,9.08086967468262,-10.27991485595703,2.84075975418091,1.37741839885712
310,1953737896,-0.09385193139315,-0.28889095783234,-116.51757812500000,-1.07790601253510,2.13869547843933,11.51639270782471,8.33542346954346,4.16527223587036,-0.92177951335907
311,1953746229,-0.12824766337872,-0.29137855768204,-116.51030731201172,1.07073307037354,-1.99051630496979,6.61775541305542,-4.74665117263794,3.24077677726746,1.18807792663574
312,1953754562,-0.14694854617119,-0.29383179545403,-116.51123809814453,-0.44839417934418,0.80453091859818,11.77535343170166,-2.87035703659058,3.25553107261658,0.20264703035355
313,1953762895,-0.08603796362877,-0.28889623284340,-116.51630401611328,-0.34623640775681,0.78073352575302,9.00020408630371,6.68376684188843,4.13299846649170,-0.28941532969475
314,1953771228,-0.16185173392296,-0.29361602663994,-116.50679016113281,1.11067545413971,-2.11114835739136,7.98787117004395,-9.71837520599365,2.98171496391296,1.45333898067474
315,1953779561,-0.10524912178516,-0.29028332233429,-116.51589965820312,-1.16058003902435,2.20814228057861,12.10504150390625,6.16220903396606,3.94130134582520,-0.77915948629379
316,1953787894,-0.11455380171537,-0.28980362415314,-116.51165008544922,0.65054410696030,-1.13864302635193,7.15257024765015,-1.73912942409515,3.60624051094055,0.82548266649246
317,1953796227,-0.16096104681492,-0.29438146948814,-116.50868225097656,0.23806875944138,-0.47009807825089,10.54997253417969,-6.19114065170288,2.98916864395142,0.68073678016663
318,1953804560,-0.07975450903177,-0.28762808442116,-116.51728820800781,-0.84083378314972,1.69663250446320,10.24014663696289,9.11330223083496,4.36370563507080,-0.71868425607681
319,1953812893,-0.14900608360767,-0.29221349954605,-116.50750732421875,1.10548257827759,-2.06566834449768,7.28415250778198,-8.92968654632568,2.98660731315613,1.49406576156616
320,1953821226,-0.13224433362484,-0.29162842035294,-116.51341247558594,-0.80008798837662,1.49056553840637,12.22726249694824,1.38274598121643,3.62191653251648,-0.39346024394035
321,1953829559,-0.09043551236391,-0.28715831041336,-116.51548767089844,0.11062688380480,-0.17859765887260,7.81117582321167,4.39308452606201,4.07756853103638,0.07311583310366
322,1953837892,-0.16641920804977,-0.29271095991135,-116.50814056396484,0.72747647762299,-1.40430486202240,9.13703441619873,-9.74068450927734,2.88220357894897,1.19701731204987
323,1953846225,-0.09957315772772,-0.28832033276558,-116.51820373535156,-1.15606987476349,2.20813250541687,11.78994274139404,7.39174270629883,4.07037019729614,-0.89199006557465
324,1953854558,-0.12840420007706,-0.28924581408501,-116.51135253906250,1.00753104686737,-1.86708724498749,6.62488508224487,-4.08183336257935,3.43723845481873,1.13433921337128
325,1953862891,-0.15247462689877,-0.29238203167915,-116.51166534423828,-0.20076766610146,0.33211436867714,11.29333400726318,-3.51227545738220,3.16339683532715,0.27795290946960
326,1953871224,-0.08696713298559,-0.28763240575790,-116.51718139648438,-0.64565366506577,1.26055657863617,9.59939193725586,7.23132181167603,4.12180471420288,-0.34558725357056
327,1953879557,-0.16287985444069,-0.29287382960320,-116.50639343261719,1.18821132183075,-2.19889974594116,7.64781045913696,-9.72713470458984,2.90843248367310,1.61409389972687
328,1953887890,-0.11775720119476,-0.29113680124283,-116.51476287841797,-0.96536606550217,1.77365195751190,12.07409667968750,4.78454732894897,3.76036190986633,-0.69032931327820
329,1953896223,-0.10372294485569,-0.28857898712158,-116.51349639892578,0.33844843506813,-0.56655931472778,7.45882272720337,1.05941760540009,3.84647655487061,0.47269791364670
330,1953904556,-0.17037634551525,-0.29442927241325,-116.50869750976562,0.51855373382568,-0.95734477043152,9.93163204193115,-8.61996078491211,2.84680485725403,0.88869887590408
331,1953912889,-0.09014281630516,-0.28866991400719,-116.51860046386719,-0.98008143901825,1.90176534652710,10.94504737854004,8.99729442596436,4.23355960845947,-0.87631428241730
332,1953921222,-0.13705590367317,-0.29091197252274,-116.50980377197266,1.06219267845154,-1.95668482780457,6.81510019302368,-6.25038576126099,3.27914738655090,1.37057936191559
333,1953929555,-0.14808249473572,-0.29307928681374,-116.51242828369141,-0.50029253959656,0.95404678583145,11.90888118743896,-1.94865429401398,3.28091454505920,0.00262545910664
334,1953937888,-0.08919943869114,-0.28859585523605,-116.51655578613281,-0.30164265632629,0.60247462987900,8.79021358489990,6.43661546707153,4.08868598937988,-0.17881302535534
335,1953946221,-0.16246326267719,-0.29421144723892,-116.50762176513672,1.04906523227692,-1.91951274871826,8.08634567260742,-9.40928745269775,2.86465787887573,1.38548672199249
336,1953954554,-0.11120876669884,-0.29165372252464,-116.51753997802734,-1.13537549972534,2.11426687240601,12.17786979675293,5.51775503158569,3.86002731323242,-0.87487989664078
337,1953962887,-0.11229902505875,-0.29029950499535,-116.51346588134766,0.57477706670761,-1.08588039875031,7.11141490936279,-0.75223886966705,3.70083475112915,0.80132853984833
338,1953971220,-0.16224887967110,-0.29486280679703,-116.51024627685547,0.34041962027550,-0.61679285764694,10.27859783172607,-6.61720752716064,3.00271844863892,0.69917905330658
339,1953979553,-0.08672326058149,-0.28974890708923,-116.51930999755859,-0.98336929082870,1.86845922470093,10.69089603424072,8.43355274200439,4.15525770187378,-0.77124482393265
340,1953987886,-0.14557042717934,-0.29306054115295,-116.50926208496094,1.12591135501862,-2.07375216484070,7.06050539016724,-7.68163204193115,3.14997434616089,1.52026891708374
341,1953996219,-0.13885933160782,-0.29292204976082,-116.51312255859375,-0.53817957639694,1.00350379943848,11.83695316314697,0.17895385622978,3.55780458450317,-0.14502781629562
342,1954004552,-0.08645721524954,-0.28912487626076,-116.51728057861328,-0.24442970752716,0.50110709667206,8.53217029571533,5.65901708602905,4.00648880004883,-0.18411511182785
343,1954012885,-0.16517692804337,-0.29545941948891,-116.50808715820312,0.95882648229599,-1.75639986991882,8.47721672058105,-10.06465339660645,2.77669858932495,1.42431819438934
344,1954021218,-0.10856301337481,-0.29198288917542,-116.51761627197266,-1.04845404624939,1.94760739803314,11.90626430511475,6.16210651397705,3.97029638290405,-0.82695567607880
345,1954029551,-0.10995303839445,-0.29028081893921,-116.51369476318359,0.62597709894180,-1.16851937770844,6.95643377304077,-0.78832924365997,3.74386620521545,0.79784494638443
346,1954037884,-0.16383090615273,-0.29521939158440,-116.50978088378906,0.25777760148048,-0.41363567113876,10.52657508850098,-7.08848381042480,2.95661306381226,0.78485864400864
347,1954046217,-0.08889027684927,-0.29009735584259,-116.51824951171875,-0.91805613040924,1.74621176719666,10.67360782623291,8.36372852325439,4.15566635131836,-0.70372557640076
348,1954054550,-0.14103414118290,-0.29290616512299,-116.50888824462891,1.17497491836548,-2.14867711067200,6.82843971252441,-6.87798595428467,3.21132087707520,1.43692016601562
349,1954062883,-0.13904583454132,-0.29372361302376,-116.51261901855469,-0.61769551038742,1.15937542915344,11.98135566711426,-0.38774833083153,3.44312977790833,-0.13168279826641
350,1954071216,-0.08922522515059,-0.28876903653145,-116.51550292968750,-0.26943752169609,0.50032216310501,8.69302940368652,5.35146617889404,4.14485645294189,-0.02879039756954
351,1954079549,-0.16194640100002,-0.29390603303909,-116.50627899169922,1.07528114318848,-1.93029081821442,8.23934078216553,-9.34527683258057,2.92065048217773,1.42795526981354
352,1954087882,-0.10407878458500,-0.29044267535210,-116.51604461669922,-1.11790931224823,2.08234167098999,12.03074836730957,6.31182193756104,3.96811962127686,-0.85659134387970
353,1954096215,-0.11143577843904,-0.28995722532272,-116.51173400878906,0.58862096071243,-1.04093742370605,7.16838645935059,-1.50327372550964,3.59789061546326,0.83785438537598
354,1954104548,-0.16152532398701,-0.29471534490585,-116.50782775878906,0.31415095925331,-0.60866260528564,10.40530300140381,-6.63454771041870,2.97866654396057,0.78145194053650
355,1954112881,-0.08189236372709,-0.28807541728020,-116.51767730712891,-0.91445875167847,1.75416648387909,10.44309043884277,8.92698287963867,4.33806514739990,-0.86658072471619
356,1954121214,-0.14440077543259,-0.29176864027977,-116.50817871093750,1.11319279670715,-2.00691866874695,7.16396427154541,-8.12219619750977,3.10412502288818,1.45149445533752
357,1954129547,-0.13763372600079,-0.29156687855721,-116.51226043701172,-0.64442145824432,1.21730792522430,12.10773277282715,0.18589532375336,3.56543779373169,-0.17092378437519
358,1954137880,-0.08775232732296,-0.28660041093826,-116.51448059082031,-0.06193849816918,0.13161471486092,8.09959697723389,5.35817766189575,4.14688014984131,0.05060091987252
359,1954146213,-0.16500104963779,-0.29230707883835,-116.50781250000000,0.87981623411179,-1.55911684036255,8.72932434082031,-9.89022064208984,2.85361838340759,1.12588655948639
360,1954154546,-0.10302468389273,-0.28869178891182,-116.51699066162109,-1.16917610168457,2.22157502174377,12.01908493041992,6.80617666244507,3.98658728599548,-0.78766345977783
361,1954162879,-0.12164194881916,-0.28846967220306,-116.51059722900391,0.93051379919052,-1.68427431583405,6.65963029861450,-2.85401511192322,3.56469488143921,1.08859229087830
362,1954171212,-0.15382659435272,-0.29235017299652,-116.51056671142578,-0.06291951984167,0.07770034670830,11.06897258758545,-4.48794698715210,3.08391571044922,0.31693774461746
363,1954179545,-0.08498831838369,-0.28632986545563,-116.51662445068359,-0.74555605649948,1.46122980117798,9.85541725158691,7.63369512557983,4.26391220092773,-0.40234842896461
364,1954187878,-0.16039758920670,-0.29152140021324,-116.50567626953125,1.22152233123779,-2.25009584426880,7.51716899871826,-9.66881179809570,2.92472338676453,1.62485206127167
365,1954196211,-0.11779485642910,-0.28930765390396,-116.51460266113281,-0.95528620481491,1.75780344009399,12.07037734985352,4.48222255706787,3.80769729614258,-0.75667017698288
366,1954204544,-0.10228919982910,-0.28724148869514,-116.51401519775391,0.36339768767357,-0.58028644323349,7.42074155807495,1.23446524143219,3.79760479927063,0.38689020276070
367,1954212877,-0.16908410191536,-0.29241535067558,-116.50836944580078,0.43490093946457,-0.84655386209488,10.06681537628174,-8.63591766357422,2.91865301132202,0.99036175012589
368,1954221210,-0.08731286972761,-0.28616243600845,-116.51679992675781,-0.92893582582474,1.81897413730621,10.70470714569092,9.18207740783691,4.30238533020020,-0.69739890098572
369,1954229543,-0.14519688487053,-0.28928634524345,-116.50822448730469,1.18420422077179,-2.18014597892761,6.90838193893433,-7.56490755081177,3.16267895698547,1.35006213188171
370,1954237876,-0.13506729900837,-0.28904199600220,-116.51282501220703,-0.81857544183731,1.49156332015991,12.19998264312744,0.58703982830048,3.58160018920898,-0.23780250549316
371,1954246209,-0.09726016968489,-0.28526893258095,-116.51419067382812,0.12472988665104,-0.09125722944736,7.99884176254272,3.91281771659851,3.99237537384033,0.15625964105129
372,1954254542,-0.16657976806164,-0.29092532396317,-116.50736236572266,0.72025030851364,-1.40783250331879,9.26554012298584,-8.94083023071289,2.86898708343506,1.13149631023407
373,1954262875,-0.08940094709396,-0.28529667854309,-116.51638793945312,-1.13338780403137,2.19017338752747,11.32276153564453,8.63236999511719,4.21657752990723,-0.76571208238602
374,1954271208,-0.14153978228569,-0.28814804553986,-116.50736999511719,1.10625147819519,-2.03392958641052,6.95170927047729,-6.87765407562256,3.20581388473511,1.39527165889740
375,1954279541,-0.13945685327053,-0.28872787952423,-116.51088714599609,-0.59101057052612,1.03574204444885,11.87401580810547,-0.37675976753235,3.47232961654663,-0.10632468014956
376,1954287874,-0.08925602585077,-0.28528517484665,-116.51284790039062,-0.02733174525201,0.23407788574696,8.17811203002930,5.39736747741699,3.96363615989685,0.08136361837387
377,1954296207,-0.16833849251270,-0.29135066270828,-116.50480651855469,0.74260538816452,-1.46771609783173,9.10017395019531,-10.10909461975098,2.80846047401428,1.28177499771118
378,1954304540,-0.09506229311228,-0.28656533360481,-116.51467895507812,-1.11625790596008,2.16073679924011,11.48660659790039,8.16139984130859,4.12802934646606,-0.86798959970474
379,1954312873,-0.13705079257488,-0.28954187035561,-116.50637817382812,1.18382883071899,-2.11872434616089,6.68125772476196,-5.65685224533081,3.18145442008972,1.31973505020142
380,1954321206,-0.13840831816196,-0.29030978679657,-116.51035308837891,-0.64413988590240,1.10650444030762,11.90454673767090,-0.79214584827423,3.45790934562683,-0.16239427030087
381,1954329539,-0.09408196806908,-0.28742352128029,-116.51304626464844,-0.04400862753391,0.28600683808327,8.32936286926270,4.69456434249878,3.88835620880127,-0.00809409841895
382,1954337872,-0.16933867335320,-0.29363566637039,-116.50506591796875,0.75490170717239,-1.56959521770477,9.17464733123779,-9.65246963500977,2.80185174942017,1.27104246616364
383,1954346205,-0.08855225145817,-0.28831040859222,-116.51581573486328,-1.06051301956177,2.11806225776672,11.18256950378418,9.06422424316406,4.18199825286865,-0.97054910659790
384,1954354538,-0.14123272895813,-0.29190605878830,-116.50717926025391,1.13437783718109,-2.08016443252563,6.93915128707886,-6.94266271591187,3.11665105819702,1.35036981105804
385,1954362871,-0.13536120951176,-0.29187193512917,-116.51219940185547,-0.81546401977539,1.39443504810333,12.15042591094971,0.07688114047050,3.54561233520508,-0.28500959277153
386,1954371204,-0.09661076217890,-0.28802028298378,-116.51425933837891,0.23804430663586,-0.19829952716827,7.79988002777100,4.02331733703613,4.01350736618042,0.06691718846560
387,1954379537,-0.16482481360435,-0.29280894994736,-116.50897216796875,0.49732899665833,-1.14954674243927,9.64031028747559,-8.80766010284424,2.96340084075928,0.95939409732819
388,1954387870,-0.08675977587700,-0.28742587566376,-116.51854705810547,-1.00701797008514,2.09777069091797,10.89491176605225,8.73713016510010,4.19856977462769,-0.83471661806107
389,1954396203,-0.15439613163471,-0.29192432761192,-116.50823211669922,1.20686686038971,-2.30740118026733,7.14698791503906,-8.73450565338135,2.99828743934631,1.55641067028046
390,1954404536,-0.12352782487869,-0.28938162326813,-116.51519775390625,-0.93146008253098,1.66258132457733,12.11068630218506,3.07364439964294,3.85662031173706,-0.51986658573151
391,1954412869,-0.10651759058237,-0.28751185536385,-116.51364135742188,0.53949731588364,-0.77254468202591,7.26036310195923,1.41811919212341,3.76543331146240,0.50612443685532
392,1954421202,-0.16668760776520,-0.29215368628502,-116.51029968261719,0.13877575099468,-0.48729375004768,10.54370975494385,-7.84415388107300,2.99091005325317,0.71388149261475
393,1954429535,-0.08789280802011,-0.28567630052567,-116.51821899414062,-0.73298138380051,1.58057200908661,10.09380149841309,8.82672882080078,4.32113409042358,-0.63523298501968
394,1954437868,-0.16074043512344,-0.29088929295540,-116.50871276855469,1.23387169837952,-2.38406777381897,7.45572328567505,-9.36282253265381,2.92116236686707,1.45536243915558
395,1954446201,-0.10867644101381,-0.28779149055481,-116.51663208007812,-1.17512249946594,2.18883109092712,12.20665168762207,5.61910963058472,3.91409850120544,-0.63472074270248
396,1954454534,-0.11980712413788,-0.28943216800690,-116.51177215576172,0.78519582748413,-1.29127526283264,7.09587907791138,-1.95900225639343,3.35130238533020,0.89722818136215
397,1954462867,-0.15534457564354,-0.29417365789413,-116.51081848144531,-0.13786523044109,0.04945082962513,11.12708663940430,-4.88765716552734,2.97154617309570,0.43286779522896
398,1954471200,-0.08073107898235,-0.28914314508438,-116.51699066162109,-0.44727116823196,1.08276462554932,9.22911071777344,8.32394886016846,4.15474462509155,-0.42599037289619
399,1954479533,-0.16370667517185,-0.29629707336426,-116.50845336914062,0.97483474016190,-1.94550657272339,8.23777675628662,-10.57670593261719,2.67887759208679,1.34091794490814
400,1954487866,-0.10047865658998,-0.29129812121391,-116.51795959472656,-1.22052848339081,2.36225485801697,12.03910160064697,6.95681476593018,4.15236282348633,-0.82336974143982
401,1954496199,-0.12880936264992,-0.29235765337944,-116.51156616210938,1.09194350242615,-1.92982554435730,6.66126537322998,-4.02066707611084,3.41257190704346,1.08556973934174
402,1954504532,-0.14469036459923,-0.29402640461922,-116.51317596435547,-0.42782744765282,0.65768456459045,11.52424144744873,-2.53214645385742,3.35004758834839,0.11970813572407
403,1954512865,-0.08971206098795,-0.29004549980164,-116.51702117919922,-0.23609317839146,0.70188742876053,8.72571086883545,5.97140884399414,4.01929616928101,-0.14016109704971
404,1954521198,-0.17434230446815,-0.29691278934479,-116.50802612304688,0.86452496051788,-1.75318169593811,8.88383388519287,-10.77729320526123,2.72352337837219,1.39286386966705
405,1954529531,-0.09447072446346,-0.29090076684952,-116.51793670654297,-1.06978797912598,2.12774085998535,11.38163280487061,8.95456981658936,4.26465511322021,-0.86819458007812
406,1954537864,-0.13648378849030,-0.29345604777336,-116.51039123535156,1.15545690059662,-2.08501243591309,6.71336650848389,-5.66233301162720,3.24113535881042,1.21935272216797
407,1954546197,-0.14009445905685,-0.29393404722214,-116.51428222656250,-0.70944696664810,1.22414839267731,12.08323287963867,-1.05955851078033,3.48214030265808,-0.15140576660633
408,1954554530,-0.09463465958834,-0.29005470871925,-116.51532745361328,0.06025765836239,0.08603518456221,8.15954494476318,4.82898807525635,4.01624870300293,0.18953254818916
409,1954562863,-0.16580389440060,-0.29524952173233,-116.50834655761719,0.71331977844238,-1.48501610755920,9.24141407012939,-9.16177654266357,2.91481065750122,1.16090118885040
410,1954571196,-0.08509647101164,-0.28911274671555,-116.51908111572266,-1.09336912631989,2.18912148475647,11.11005306243896,9.05241584777832,4.29006385803223,-0.97508263587952
411,1954579529,-0.14644758403301,-0.29278141260147,-116.50916290283203,1.13382732868195,-2.13565516471863,7.07222223281860,-7.97955131530762,3.09723472595215,1.51424944400787
412,1954587862,-0.12987010180950,-0.29115283489227,-116.51564025878906,-0.81768250465393,1.44612860679626,12.09228515625000,1.35918080806732,3.74819493293762,-0.46192708611488
413,1954596195,-0.09583770483732,-0.28781929612160,-116.51588439941406,0.34639373421669,-0.42525407671928,7.55887031555176,3.46052169799805,3.94081425666809,0.29237365722656
414,1954604528,-0.16403071582317,-0.29288110136986,-116.51014709472656,0.38558781147003,-0.86848908662796,9.98753070831299,-8.80545806884766,2.94083499908447,1.00204169750214
415,1954612861,-0.08666359633207,-0.28676593303680,-116.51775360107422,-0.94702935218811,1.93396115303040,10.66787052154541,8.65462684631348,4.27628374099731,-0.59476250410080
416,1954621194,-0.15475639700890,-0.29148325324059,-116.50805664062500,1.27557337284088,-2.39602112770081,7.12541437149048,-8.79121685028076,2.98097205162048,1.47472691535950
417,1954629527,-0.11620754748583,-0.28904971480370,-116.51638793945312,-1.03275680541992,1.85595762729645,12.12039566040039,3.99634575843811,3.83415651321411,-0.67475581169128
418,1954637860,-0.11027520895004,-0.28853151202202,-116.51403808593750,0.60319924354553,-0.89724254608154,7.27209043502808,0.08825384080410,3.61223435401917,0.59695249795914
419,1954646193,-0.16166935861111,-0.29286795854568,-116.51044464111328,0.06853666901588,-0.32127794623375,10.70343494415283,-6.79071855545044,3.01824069023132,0.74687272310257
420,1954654526,-0.08179383724928,-0.28681433200836,-116.51800537109375,-0.60089671611786,1.35117971897125,9.69390010833740,8.95482635498047,4.27858924865723,-0.59125339984894
421,1954662859,-0.15926755964756,-0.29321753978729,-116.50859069824219,1.09667003154755,-2.15688967704773,7.82017135620117,-9.91621875762939,2.77055144309998,1.44388735294342
422,1954671192,-0.10117702186108,-0.28902879357338,-116.51735687255859,-1.21465277671814,2.30603504180908,12.10757160186768,6.34040689468384,4.05582237243652,-0.73656302690506
423,1954679525,-0.12542101740837,-0.29100188612938,-116.51088714599609,0.99981081485748,-1.73562300205231,6.88343620300293,-3.52853989601135,3.30166196823120,1.09461140632629
424,1954687858,-0.14307369291782,-0.29256001114845,-116.51290893554688,-0.41558465361595,0.57981634140015,11.48135662078857,-2.74558997154236,3.36393046379089,0.07173267006874
425,1954696191,-0.08635248243809,-0.28753283619881,-116.51697540283203,-0.13005645573139,0.55386412143707,8.52547454833984,6.17924261093140,4.14455032348633,-0.17061643302441
426,1954704524,-0.16798786818981,-0.29360097646713,-116.50917816162109,0.70939528942108,-1.55291891098022,9.13442230224609,-10.41720867156982,2.81980729103088,1.24919354915619
427,1954712857,-0.08902837336063,-0.28804478049278,-116.51813507080078,-1.04965925216675,2.13805532455444,11.17983627319336,8.84570980072021,4.20881605148315,-0.75928276777267
428,1954721190,-0.14671863615513,-0.29207995533943,-116.50962829589844,1.28128826618195,-2.39181017875671,6.91079521179199,-7.54305887222290,3.06339836120605,1.33328497409821
429,1954729523,-0.11991260200739,-0.28960078954697,-116.51702880859375,-1.00537073612213,1.79309272766113,12.20844841003418,2.58725571632385,3.84076523780823,-0.56958383321762
430,1954737856,-0.10705679655075,-0.28838694095612,-116.51502227783203,0.54917472600937,-0.76690185070038,7.43228912353516,0.91728419065475,3.69432759284973,0.55553424358368
431,1954746189,-0.15791460871696,-0.29310140013695,-116.51173400878906,0.04485489428043,-0.42919048666954,10.65861129760742,-6.72535085678101,2.97572088241577,0.70670962333679
432,1954754522,-0.07780353724957,-0.28751078248024,-116.51864624023438,-0.53673517704010,1.37148165702820,9.58876514434814,8.98354053497314,4.22254514694214,-0.51394963264465
433,1954762855,-0.15966475009918,-0.29412955045700,-116.50997161865234,1.01701426506042,-2.06380152702332,8.08382797241211,-10.44297695159912,2.74380993843079,1.35656845569611
434,1954771188,-0.09608509391546,-0.28912860155106,-116.51905059814453,-1.23700582981110,2.42021560668945,11.99899578094482,6.99835968017578,4.15323257446289,-0.77513796091080
435,1954779521,-0.13211783766747,-0.29253295063972,-116.51148223876953,1.13344895839691,-2.04119253158569,6.76191997528076,-4.94280481338501,3.12940645217896,1.22450137138367
436,1954787854,-0.13424731791019,-0.29217854142189,-116.51502227783203,-0.62770318984985,0.98324900865555,11.74704074859619,-0.88356298208237,3.59438157081604,-0.10985945165157
437,1954796187,-0.09159964323044,-0.28852799534798,-116.51714324951172,0.13476331532001,0.08457394689322,8.04412746429443,4.49195623397827,3.97908210754395,0.06561086326838
438,1954804520,-0.16677576303482,-0.29490023851395,-116.51049041748047,0.45914581418037,-1.14510929584503,9.78469467163086,-9.64291572570801,2.78387045860291,1.11284899711609
439,1954812853,-0.08288562297821,-0.28859913349152,-116.51987457275391,-0.87598961591721,1.87752962112427,10.54257106781006,9.43614578247070,4.29810810089111,-0.80876964330673
440,1954821186,-0.15335425734520,-0.29477262496948,-116.51018524169922,1.29353225231171,-2.49334144592285,7.21556568145752,-9.07668685913086,2.80697464942932,1.47529053688049
441,1954829519,-0.10486570000648,-0.29088294506073,-116.51861572265625,-1.21356368064880,2.23129510879517,12.26706886291504,5.18955850601196,4.00994634628296,-0.69117450714111
442,1954837852,-0.11850858479738,-0.29069852828979,-116.51363372802734,0.85121059417725,-1.39878547191620,7.03982019424438,-2.26086616516113,3.56966423988342,0.91221266984940
443,1954846185,-0.14613296091557,-0.29253599047661,-116.51408386230469,-0.35854592919350,0.35889083147049,11.39687824249268,-3.93936681747437,3.31959199905396,0.25974115729332
444,1954854518,-0.07985449582338,-0.28698593378067,-116.51878356933594,-0.13099588453770,0.65776300430298,8.63152313232422,7.32601642608643,4.21726894378662,-0.24825315177441
445,1954862851,-0.16328141093254,-0.29248678684235,-116.51092529296875,0.70719027519226,-1.57325172424316,9.02101421356201,-10.63234329223633,2.87800312042236,1.26538181304932
446,1954871184,-0.08591839671135,-0.28556364774704,-116.52003479003906,-1.12269365787506,2.31524848937988,11.31596755981445,8.65375614166260,4.38370990753174,-0.77649545669556
447,1954879517,-0.15062962472439,-0.29032957553864,-116.51004791259766,1.29931437969208,-2.43669271469116,6.92474651336670,-8.38295078277588,2.96609044075012,1.52154970169067
448,1954887850,-0.11643567681313,-0.28775617480278,-116.51776885986328,-0.99153053760529,1.79471576213837,12.08546924591064,3.47240662574768,3.86074447631836,-0.61179602146149
449,1954896183,-0.10896132141352,-0.28659054636955,-116.51486206054688,0.67686539888382,-0.98304110765457,7.19632816314697,0.27408507466316,3.67949724197388,0.67033725976944
450,1954904516,-0.15709689259529,-0.29075747728348,-116.51306915283203,-0.14670613408089,-0.04140896722674,11.02492046356201,-6.40020322799683,3.04910564422607,0.52966392040253
451,1954912849,-0.08316648006439,-0.28564986586571,-116.51917266845703,-0.39124938845634,1.03258717060089,9.23254108428955,8.24346828460693,4.15589714050293,-0.41185131669044
452,1954921182,-0.16220539808273,-0.29194831848145,-116.51051330566406,0.94392931461334,-2.03596687316895,8.35946559906006,-10.10686588287354,2.79081225395203,1.35239350795746
453,1954929515,-0.08618810772896,-0.28516793251038,-116.52082824707031,-1.18721711635590,2.39046812057495,11.58716964721680,8.49243927001953,4.35817289352417,-0.91842418909073
454,1954937848,-0.14160126447678,-0.28913998603821,-116.51168823242188,1.16795599460602,-2.16011357307434,6.99238586425781,-7.26973009109497,3.07077574729919,1.41046071052551
455,1954946181,-0.12416758388281,-0.28811877965927,-116.51654052734375,-0.88501113653183,1.52641773223877,12.09653759002686,1.46440410614014,3.66384720802307,-0.26561960577965
456,1954954514,-0.09981748461723,-0.28653979301453,-116.51571655273438,0.54333460330963,-0.72393149137497,7.33541774749756,2.29653406143188,3.73912787437439,0.41153115034103
457,1954962847,-0.15667843818665,-0.29083359241486,-116.51255035400391,0.03290341421962,-0.38547381758690,10.58484077453613,-7.44631576538086,3.02349185943604,0.69751417636871
458,1954971180,-0.08314036577940,-0.28501099348068,-116.51911163330078,-0.55872935056686,1.43221247196198,9.68624591827393,8.19500732421875,4.25061893463135,-0.47004684805870
459,1954979513,-0.16593156754971,-0.29092746973038,-116.50933074951172,1.04865849018097,-2.19923877716064,8.18310832977295,-10.55378341674805,2.82795262336731,1.48753392696381
460,1954987846,-0.09219028055668,-0.28595796227455,-116.51954650878906,-1.13768196105957,2.26133561134338,11.57493972778320,8.21677875518799,4.14890480041504,-0.91191822290421
461,1954996179,-0.13562610745430,-0.28915864229202,-116.51210021972656,1.14280235767365,-2.05355620384216,6.87632560729980,-5.83151578903198,3.15527653694153,1.21492147445679
462,1955004512,-0.12948884069920,-0.28904026746750,-116.51733398437500,-0.85990619659424,1.42922568321228,12.10788345336914,0.10787436366081,3.56554031372070,-0.31249371170998
463,1955012845,-0.09887810796499,-0.28651586174965,-116.51645660400391,0.45673152804375,-0.48407533764839,7.59512233734131,3.04890108108521,3.84263491630554,0.42561897635460
464,1955021178,-0.15704648196697,-0.29090231657028,-116.51284790039062,0.18193039298058,-0.69616317749023,10.29602336883545,-7.60289382934570,3.02295351028442,0.74543827772141
465,1955029511,-0.07810866087675,-0.28491568565369,-116.51949310302734,-0.67575800418854,1.61723470687866,9.87771892547607,8.84437751770020,4.25884008407593,-0.47878128290176
466,1955037844,-0.16236157715321,-0.29213157296181,-116.50935363769531,1.03911888599396,-2.15496563911438,8.08181762695312,-10.72980403900146,2.68197679519653,1.52979755401611
467,1955046177,-0.09522423148155,-0.28671589493752,-116.51787567138672,-1.12995767593384,2.25192880630493,11.82086181640625,7.42691230773926,4.19226932525635,-0.70633816719055
468,1955054510,-0.13152185082436,-0.28999611735344,-116.51087188720703,1.18894529342651,-2.09159755706787,6.71785497665405,-4.97766542434692,3.15479016304016,1.15708470344543
469,1955062843,-0.13071455061436,-0.29004201292992,-116.51551818847656,-0.81543189287186,1.30371534824371,11.99046993255615,-0.53131616115570,3.53562259674072,-0.24622966349125
470,1955071176,-0.09755957126617,-0.28736808896065,-116.51531219482422,0.30851590633392,-0.21283435821533,7.86982107162476,3.35296750068665,3.87093853950500,0.34306424856186
471,1955079509,-0.16107670962811,-0.29276189208031,-116.51024627685547,0.28078615665436,-0.88610798120499,10.12135696411133,-8.24304580688477,2.89270544052124,0.92555767297745
472,1955087842,-0.07712518423796,-0.28635051846504,-116.51844024658203,-0.68435734510422,1.64638745784760,9.99507141113281,9.44213771820068,4.32057142257690,-0.66702044010162
473,1955096175,-0.15794454514980,-0.29240769147873,-116.50893402099609,1.07847666740417,-2.19404196739197,7.84994459152222,-10.31659603118896,2.81097078323364,1.46176624298096
474,1955104508,-0.09834479540586,-0.28787174820900,-116.51821899414062,-1.23258161544800,2.41985774040222,12.05365943908691,6.52126979827881,4.09680557250977,-0.80044496059418
475,1955112841,-0.13172253966331,-0.28991726040840,-116.51077270507812,1.14588940143585,-2.02950096130371,6.76910638809204,-4.62536716461182,3.29413127899170,1.21000361442566
476,1955121174,-0.13239452242851,-0.28949514031410,-116.51410675048828,-0.68882733583450,1.03224682807922,11.74275398254395,-0.70859217643738,3.60239839553833,-0.08647365123034
477,1955129507,-0.09221131354570,-0.28575369715691,-116.51448822021484,0.23123282194138,-0.05309036746621,7.92801713943481,4.19816064834595,3.98932838439941,0.27521213889122
478,1955137840,-0.16384842991829,-0.29254445433617,-116.50801849365234,0.34237310290337,-0.94983178377151,10.02185058593750,-9.21935653686523,2.73420405387878,1.09018015861511
479,1955146173,-0.08074027299881,-0.28663522005081,-116.51610565185547,-0.73670029640198,1.74820411205292,10.27538871765137,9.34539318084717,4.25128412246704,-0.65124195814133
480,1955154506,-0.15586192905903,-0.29201835393906,-116.50669097900391,1.22507703304291,-2.41558814048767,7.49379396438599,-9.63715171813965,2.90156817436218,1.44209444522858
481,1955162839,-0.09677423536777,-0.28739655017853,-116.51655578613281,-1.23955702781677,2.36605858802795,12.09704399108887,6.46092271804810,4.09665203094482,-0.86409634351730
482,1955171172,-0.12697242200375,-0.28971078991890,-116.50957489013672,1.01528263092041,-1.74762105941772,6.94860792160034,-4.24538040161133,3.27079701423645,1.15219247341156
483,1955179505,-0.13842886686325,-0.29120227694511,-116.51230621337891,-0.60511529445648,0.87122142314911,11.80837726593018,-2.00090718269348,3.36331534385681,-0.01562468335032
484,1955187838,-0.08723720163107,-0.28666198253632,-116.51448059082031,0.15709312260151,0.03786565363407,7.98660945892334,5.51498794555664,4.09470462799072,0.05539077892900
485,1955196171,-0.16118611395359,-0.29233840107918,-116.50801849365234,0.45520427823067,-1.14116859436035,9.66934680938721,-9.49463367462158,2.85856151580811,1.09791564941406
486,1955204504,-0.08095958083868,-0.28626394271851,-116.51626586914062,-0.95372992753983,2.07873153686523,10.64603233337402,8.99637222290039,4.27987003326416,-0.67234808206558
487,1955212837,-0.15820582211018,-0.29183256626129,-116.50576019287109,1.22940146923065,-2.44105601310730,7.37887716293335,-9.88712120056152,2.86957573890686,1.57621061801910
488,1955221170,-0.10245367884636,-0.28738662600517,-116.51484680175781,-1.10609185695648,2.07512140274048,11.98648357391357,6.05895805358887,4.08622646331787,-0.77457445859909
489,1955229503,-0.11924792826176,-0.28876340389252,-116.50897216796875,0.96592915058136,-1.60050058364868,6.82269382476807,-2.63519263267517,3.37386894226074,1.02750229835510
490,1955237836,-0.14515869319439,-0.29066669940948,-116.51054382324219,-0.51844877004623,0.70429676771164,11.70227622985840,-3.73547792434692,3.32158970832825,0.12501026690006
491,1955246169,-0.08879446983337,-0.28662765026093,-116.51335906982422,-0.02356301248074,0.39104640483856,8.45781421661377,6.13723516464233,4.02577686309814,-0.01972296275198
492,1955254502,-0.16208977997303,-0.29265862703323,-116.50685119628906,0.65171182155609,-1.54855346679688,9.27887248992920,-9.41776561737061,2.82508397102356,1.09453475475311
493,1955262835,-0.07757230103016,-0.28651532530785,-116.51663208007812,-0.98967027664185,2.16624927520752,10.83912181854248,9.51260280609131,4.27933263778687,-0.85420918464661
494,1955271168,-0.15118350088596,-0.29198676347733,-116.50624084472656,1.18037128448486,-2.27191376686096,7.36480522155762,-9.45398330688477,2.89106583595276,1.56242978572845
495,1955279501,-0.10960146039724,-0.28841382265091,-116.51401519775391,-1.12188315391541,2.02687215805054,12.16392517089844,4.36137437820435,3.97045016288757,-0.61489534378052
496,1955287834,-0.11201886832714,-0.28871724009514,-116.50865936279297,0.90298354625702,-1.44539737701416,6.87650012969971,-0.91309618949890,3.51151943206787,0.95693504810333
497,1955296167,-0.14390124380589,-0.29121246933937,-116.50919342041016,-0.35001286864281,0.35565826296806,11.29731750488281,-4.45195913314819,3.24134039878845,0.24670350551605
498,1955304500,-0.08398959785700,-0.28659152984619,-116.51364135742188,-0.19780474901199,0.78576731681824,8.83423042297363,6.56235551834106,4.10569334030151,-0.21928347647190
499,1955312833,-0.16504766047001,-0.29268419742584,-116.50577545166016,0.75905549526215,-1.71567082405090,9.01191139221191,-10.34781932830811,2.80822968482971,1.26420354843140
500,1955321166,-0.08094012737274,-0.28625741600990,-116.51570892333984,-0.99996757507324,2.10077333450317,11.03677082061768,9.46088790893555,4.32267189025879,-0.87439322471619
501,1955329499,-0.14371867477894,-0.29035833477974,-116.50746917724609,1.23137307167053,-2.30788564682007,7.07256889343262,-8.15188503265381,3.04736399650574,1.30508375167847
502,1955337832,-0.11308847367764,-0.28774186968803,-116.51428222656250,-1.10387718677521,1.96941673755646,12.25770568847656,3.04551982879639,3.86607193946838,-0.50221830606461
503,1955346165,-0.10923593491316,-0.28693968057632,-116.51043701171875,0.75665473937988,-1.13922166824341,7.17806720733643,-0.15939736366272,3.63495469093323,0.78232264518738
504,1955354498,-0.14841832220554,-0.29048368334770,-116.50872802734375,-0.15943765640259,-0.02061033435166,10.97086429595947,-5.32640409469604,3.12474489212036,0.51880353689194
505,1955362831,-0.07860840111971,-0.28532522916794,-116.51512145996094,-0.36658972501755,1.05066132545471,9.10924720764160,7.74931859970093,4.16183948516846,-0.45206561684608
506,1955371164,-0.16372369229794,-0.29136097431183,-116.50675964355469,0.84270954132080,-1.84077250957489,8.68583583831787,-10.83459186553955,2.82362389564514,1.31512463092804
507,1955379497,-0.08773605525494,-0.28614857792854,-116.51569366455078,-1.11329555511475,2.22385740280151,11.46000480651855,8.48787975311279,4.16826868057251,-0.75708007812500
508,1955387830,-0.14034707844257,-0.29018422961235,-116.50633239746094,1.25890839099884,-2.34217596054077,6.79223251342773,-6.93395376205444,3.06291246414185,1.43671548366547
509,1955396163,-0.11949710547924,-0.28808990120888,-116.51170349121094,-0.96697735786438,1.67257916927338,12.19702243804932,1.87412965297699,3.79348111152649,-0.32599240541458
510,1955404496,-0.10373856872320,-0.28751009702682,-116.51087188720703,0.52398824691772,-0.65042150020599,7.43600845336914,1.26520228385925,3.62035417556763,0.41611605882645
511,1955412829,-0.15808533132076,-0.29220131039619,-116.50819396972656,0.07397042214870,-0.44353425502777,10.62985038757324,-7.14450311660767,2.97677159309387,0.63883197307587
512,1955421162,-0.07848301529884,-0.28579941391945,-116.51591491699219,-0.50985336303711,1.32687699794769,9.52587413787842,8.92127227783203,4.32028913497925,-0.61066901683807
513,1955429495,-0.16033005714417,-0.29142826795578,-116.50651550292969,0.98913079500198,-2.07990360260010,8.16132926940918,-10.44023418426514,2.86358189582825,1.44483494758606
514,1955437828,-0.09374119341373,-0.28651648759842,-116.51515960693359,-1.21937251091003,2.43451476097107,11.88995933532715,7.35977745056152,4.14186048507690,-0.72196286916733
515,1955446161,-0.13669359683990,-0.29002135992050,-116.50717163085938,1.16716730594635,-2.14804244041443,6.80216932296753,-5.77347421646118,3.11826395988464,1.27590906620026
516,1955454494,-0.12889967858791,-0.28875717520714,-116.51085662841797,-0.73126262426376,1.19819748401642,11.87352466583252,0.30705058574677,3.70237064361572,-0.12784063816071
517,1955462827,-0.09494612365961,-0.28616768121719,-116.51103210449219,0.32701525092125,-0.24343326687813,7.73147487640381,3.45009636878967,3.84993481636047,0.30059584975243
518,1955471160,-0.16301640868187,-0.29080849885941,-116.50561523437500,0.25279515981674,-0.78263992071152,10.19007682800293,-8.79119110107422,2.99285745620728,0.96502923965454
519,1955479493,-0.08175846189260,-0.28511381149292,-116.51490020751953,-0.72883939743042,1.66101276874542,10.13971042633057,9.12083148956299,4.22572135925293,-0.80088037252426
520,1955487826,-0.15725888311863,-0.29092949628830,-116.50627899169922,1.21413755416870,-2.39277958869934,7.58062076568604,-9.68110561370850,2.85044193267822,1.34878182411194
521,1955496159,-0.09707634896040,-0.28660890460014,-116.51577758789062,-1.23306071758270,2.34623861312866,12.06987476348877,6.59255456924438,4.05971574783325,-0.82196092605591
522,1955504492,-0.12586592137814,-0.28864982724190,-116.50930023193359,0.98829263448715,-1.70053088665009,6.94141530990601,-4.07722282409668,3.30447959899902,1.08948862552643
523,1955512825,-0.14064688980579,-0.28970012068748,-116.51089477539062,-0.55653727054596,0.79933774471283,11.77743625640869,-2.39972066879272,3.41403126716614,0.13169558346272
524,1955521158,-0.08574607968330,-0.28455424308777,-116.51319122314453,0.06913968175650,0.18767888844013,8.14871215820312,5.96121406555176,4.16847324371338,0.03925381973386
525,1955529491,-0.16210006177425,-0.28998592495918,-116.50620269775391,0.54006689786911,-1.27013182640076,9.45583820343018,-9.78233242034912,2.88712167739868,1.15531730651855
526,1955537824,-0.08427728712559,-0.28309851884842,-116.51474761962891,-1.03390419483185,2.16108751296997,10.92450237274170,8.70721340179443,4.37751102447510,-0.71115356683731
527,1955546157,-0.15648852288723,-0.28805485367775,-116.50418090820312,1.26756775379181,-2.45461559295654,7.17335605621338,-9.28326511383057,2.94495844841003,1.58643043041229
528,1955554490,-0.11119461804628,-0.28465196490288,-116.51270294189453,-1.04132568836212,1.89583933353424,12.07502269744873,4.80516719818115,3.96074223518372,-0.70807999372482
529,1955562823,-0.11205652356148,-0.28392851352692,-116.50802612304688,0.77404743432999,-1.21671831607819,7.02483558654785,-0.72508770227432,3.62527227401733,0.88731551170349
530,1955571156,-0.15392091870308,-0.28750520944595,-116.50629425048828,-0.23006148636341,0.17817504703999,11.24149608612061,-5.65011644363403,3.12105631828308,0.52090388536453
531,1955579489,-0.08346720784903,-0.28105777502060,-116.51213073730469,-0.30985227227211,0.92560106515884,9.06877708435059,7.82762050628662,4.31549835205078,-0.38229241967201
532,1955587822,-0.16115380823612,-0.28657522797585,-116.50413513183594,0.95037955045700,-1.97908008098602,8.46758556365967,-9.94452285766602,2.88653278350830,1.27257943153381
533,1955596155,-0.08506320416927,-0.28148475289345,-116.51412200927734,-1.18680930137634,2.38097023963928,11.57591724395752,8.50232696533203,4.15310573577881,-0.88476705551147
534,1955604488,-0.13761588931084,-0.28516337275505,-116.50476837158203,1.14483404159546,-2.08658933639526,6.96423006057739,-6.92780590057373,3.10630249977112,1.43722748756409
535,1955612821,-0.12599730491638,-0.28427651524544,-116.50919342041016,-0.80979913473129,1.37717866897583,12.07721138000488,0.76795315742493,3.64696764945984,-0.21387885510921
536,1955621154,-0.09117166697979,-0.28149399161339,-116.50901031494141,0.36922118067741,-0.43026125431061,7.56705379486084,3.55191326141357,3.88441133499146,0.33540558815002
537,1955629487,-0.15718720853329,-0.28662401437759,-116.50398254394531,0.28251224756241,-0.75163763761520,10.20666503906250,-8.54360389709473,2.92416000366211,0.92153614759445
538,1955637820,-0.07934840023518,-0.28095364570618,-116.51290893554688,-0.79414749145508,1.77940571308136,10.26675224304199,8.71077346801758,4.23271417617798,-0.75421106815338
539,1955646153,-0.15641932189465,-0.28620108962059,-116.50276947021484,1.21595871448517,-2.36053776741028,7.52241945266724,-9.86714267730713,2.90699839591980,1.53000235557556
540,1955654486,-0.09950005263090,-0.28172776103020,-116.51242828369141,-1.11607098579407,2.11682558059692,12.02481460571289,6.19832563400269,4.08994102478027,-0.84496241807938
541,1955662819,-0.11661663651466,-0.28339907526970,-116.50689697265625,0.89889800548553,-1.51035690307617,6.90656232833862,-2.67492032051086,3.33803439140320,0.98060256242752
542,1955671152,-0.14372271299362,-0.28653386235237,-116.50651550292969,-0.42641949653625,0.54684346914291,11.56357288360596,-3.87889170646667,3.17364239692688,0.35768997669220
543,1955679485,-0.08239888399839,-0.28145313262939,-116.51158142089844,-0.11902714520693,0.54229205846786,8.64128875732422,6.73258733749390,4.15287446975708,-0.28544509410858
544,1955687818,-0.15861815214157,-0.28667220473289,-116.50439453125000,0.79620522260666,-1.64821064472198,8.94064807891846,-9.76847648620605,2.92106056213379,1.17644917964935
545,1955696151,-0.08106184005737,-0.28032243251801,-116.51443481445312,-1.13451552391052,2.29226088523865,11.33611583709717,8.67629623413086,4.30494594573975,-0.88694411516190
546,1955704484,-0.14239385724068,-0.28458732366562,-116.50499725341797,1.18202710151672,-2.23420166969299,7.03470516204834,-7.98042297363281,3.03686213493347,1.44524478912354
547,1955712817,-0.11791825294495,-0.28328540921211,-116.51128387451172,-0.92658716440201,1.61798083782196,12.07407760620117,2.30931568145752,3.69781184196472,-0.43436622619629
548,1955721150,-0.11002027243376,-0.28312420845032,-116.50794982910156,0.89357221126556,-1.21997129917145,7.18539524078369,0.32400727272034,3.56874155998230,0.71475243568420
549,1955729483,-0.11726777255535,-0.28120976686478,-116.51258850097656,-0.99469661712646,1.26733267307281,11.34118843078613,-1.49748492240906,3.77129888534546,-0.23606078326702
550,1955737816,-0.13585036993027,-0.28696539998055,-116.50779724121094,1.06363296508789,-1.81773221492767,8.25151729583740,-2.85350251197815,2.85786962509155,0.88828885555267
551,1955746149,-0.09892547130585,-0.28197658061981,-116.50897216796875,-0.18115246295929,1.38234210014343,9.73292255401611,3.80572462081909,4.13914537429810,0.17828787863255
552,1955754482,-0.11173132807016,-0.27870708703995,-116.51076507568359,-0.61711633205414,0.51902133226395,9.92584514617920,-2.16296863555908,3.94296526908875,0.10001078248024
553,1955762815,-0.12981539964676,-0.28032475709915,-116.51147460937500,-0.00865468196571,-0.47511386871338,9.64715385437012,-2.79610133171082,3.34682035446167,0.23223148286343
554,1955771148,-0.13658571243286,-0.28208929300308,-116.51215362548828,0.14354954659939,-0.48588547110558,9.47501468658447,-1.43882846832275,3.33870053291321,0.23338414728642
555,1955779481,-0.13722491264343,-0.28290092945099,-116.51229095458984,0.08896965533495,-0.18920849263668,9.42649364471436,-0.70183014869690,3.44325780868530,0.29252737760544
556,1955787814,-0.13580675423145,-0.28160008788109,-116.51311492919922,-0.00816646777093,0.07715542614460,9.48332023620605,-0.45496001839638,3.70669984817505,0.21742643415928
557,1955796147,-0.13190664350986,-0.28038012981415,-116.51376342773438,-0.00309807760641,0.34906852245331,9.53958511352539,-0.15798860788345,3.68541431427002,0.23976202309132
558,1955804480,-0.12085826694965,-0.27858483791351,-116.51227569580078,0.15496814250946,0.31614434719086,9.43827819824219,0.70156115293503,3.76517724990845,0.49580195546150
559,1955812813,-0.10722576826811,-0.28121775388718,-116.50748443603516,0.30833226442337,-0.16562902927399,9.33296489715576,1.01459264755249,3.22341108322144,0.88823777437210
560,1955821146,-0.10621450096369,-0.28797626495361,-116.50264739990234,0.10903564095497,-0.80885344743729,9.36035728454590,-0.50260251760483,2.73776459693909,0.89312988519669
561,1955829479,-0.12440022081137,-0.28607416152954,-116.50663757324219,-0.35377553105354,-0.19277356564999,9.69925403594971,-2.80844736099243,3.77124810218811,-0.15716895461082
562,1955837812,-0.12251488864422,-0.27691170573235,-116.51194763183594,0.09338531643152,0.76158380508423,9.58729743957520,-0.40293753147125,4.65048265457153,-0.32099756598473
563,1955846145,-0.10795555263758,-0.28448557853699,-116.50707244873047,0.48091837763786,-0.40217879414558,9.21335315704346,1.12496435642242,2.63067173957825,0.89876520633698
564,1955854478,-0.12338385730982,-0.28605017066002,-116.50724792480469,-0.51101827621460,-0.21320161223412,9.79912376403809,-2.47746014595032,3.36275196075439,0.29337266087532
565,1955862811,-0.11362493038177,-0.27580776810646,-116.51080322265625,0.32484310865402,0.44975864887238,9.40975379943848,0.54472512006760,4.77081823348999,-0.11687774211168
566,1955871144,-0.12020505964756,-0.28887125849724,-116.50513458251953,0.01778541877866,-0.53960108757019,9.42600250244141,-1.41175425052643,1.98119688034058,0.99033594131470
567,1955879477,-0.11442809551954,-0.27882945537567,-116.50990295410156,-0.12697957456112,0.45885595679283,9.64583587646484,0.06625121831894,4.74809789657593,-0.25929293036461
568,1955887810,-0.12195749580860,-0.28697761893272,-116.50528717041016,0.13544204831123,-0.45815220475197,9.37560367584229,-1.52745366096497,2.56965851783752,0.86838668584824
569,1955896143,-0.11167127639055,-0.28034663200378,-116.50881195068359,0.00992861390114,0.31258836388588,9.59532260894775,0.60845333337784,4.33809089660645,-0.10791277885437
570,1955904476,-0.12346139550209,-0.28323990106583,-116.50540924072266,-0.00801506172866,-0.20547276735306,9.54711437225342,-2.03973793983459,3.20273923873901,0.72089970111847
571,1955912809,-0.11452108621597,-0.28182241320610,-116.50786590576172,0.11959230899811,-0.04728997126222,9.44286060333252,0.44751909375191,3.71036291122437,0.02296316064894
572,1955921142,-0.11910089105368,-0.28088226914406,-116.50764465332031,-0.02064272388816,0.10106241703033,9.60460662841797,-1.17579579353333,3.66369342803955,0.34129688143730
573,1955929475,-0.12042216956615,-0.28139996528625,-116.50714111328125,0.02978980913758,-0.11658386886120,9.44117355346680,-0.78228443861008,3.47873353958130,0.37062519788742
574,1955937808,-0.11901886016130,-0.28180903196335,-116.50630950927734,0.02706860750914,-0.03392156586051,9.49761390686035,-0.45608711242676,3.50073623657227,0.41383641958237
575,1955946141,-0.11745402961969,-0.28095245361328,-116.50636291503906,0.02488989755511,-0.00123859499581,9.49364471435547,-0.43761914968491,3.64430308341980,0.30356708168983
576,1955954474,-0.11796924471855,-0.28090393543243,-116.50579071044922,0.01597775705159,-0.02646960318089,9.50981521606445,-0.68781906366348,3.55544829368591,0.38453370332718
577,1955962807,-0.11854384094477,-0.28130310773849,-116.50543212890625,0.01942157745361,-0.02684243023396,9.46189785003662,-0.69260895252228,3.49292373657227,0.35758757591248
578,1955971140,-0.11856135725975,-0.28150403499603,-116.50511932373047,0.00309425848536,-0.04312485828996,9.52841472625732,-0.62903439998627,3.52537703514099,0.35300257802010
579,1955979473,-0.11853887885809,-0.28138527274132,-116.50496673583984,0.03196264058352,-0.02202046848834,9.49306583404541,-0.62147825956345,3.55498719215393,0.33335649967194
580,1955987806,-0.11837477236986,-0.28186440467834,-116.50469970703125,0.03930519148707,-0.03297504037619,9.50443267822266,-0.60500830411911,3.49289822578430,0.34723940491676
581,1955996139,-0.11818674206734,-0.28102642297745,-116.50446319580078,0.03665209189057,-0.02191407233477,9.47852039337158,-0.60203689336777,3.64207458496094,0.34285929799080
582,1956004472,-0.11818271130323,-0.28106039762497,-116.50580596923828,0.02648253366351,-0.01930137537420,9.48151302337646,-0.62626802921295,3.54586791992188,0.15497894585133
583,1956012805,-0.11815576255322,-0.28068581223488,-116.50596618652344,0.02423814311624,-0.00587212527171,9.51879310607910,-0.62237459421158,3.58713221549988,0.28617501258850
584,1956021138,-0.11766921728849,-0.28029772639275,-116.50611877441406,0.02849272079766,-0.03347762674093,9.50393772125244,-0.56679171323776,3.59671187400818,0.29726597666740
585,1956029471,-0.11757287383080,-0.27986085414886,-116.50717163085938,0.03726942464709,-0.02811206132174,9.49551391601562,-0.61358898878098,3.59240937232971,0.18845672905445
586,1956037804,-0.11814499646425,-0.28013283014297,-116.50691986083984,0.03612373024225,-0.02462885528803,9.48232936859131,-0.69383847713470,3.51702690124512,0.34437060356140
587,1956046137,-0.11818832904100,-0.28044304251671,-116.50722503662109,0.02283640764654,-0.01201609149575,9.50957870483398,-0.63059687614441,3.50473189353943,0.27946415543556
588,1956054470,-0.11775747686625,-0.28032791614532,-116.50714111328125,0.02828155085444,-0.01775759831071,9.49009704589844,-0.57386136054993,3.56372165679932,0.32428905367851
589,1956062803,-0.11765162646770,-0.28030130267143,-116.50703430175781,0.02789834514260,-0.01359724625945,9.46612644195557,-0.61238515377045,3.54556107521057,0.32728588581085
590,1956071136,-0.11852435767651,-0.28014382719994,-116.50689697265625,0.01620831154287,-0.02052405476570,9.48400783538818,-0.72992885112762,3.56835746765137,0.33025711774826
591,1956079469,-0.11786299943924,-0.27975219488144,-116.50660705566406,0.03850438818336,-0.03323052451015,9.49723815917969,-0.54532700777054,3.58741378784180,0.34808459877968
592,1956087802,-0.11839082092047,-0.28067755699158,-116.50599670410156,0.02534916810691,-0.02637400291860,9.47757816314697,-0.68909984827042,3.43862152099609,0.38778674602509
593,1956096135,-0.11820178478956,-0.28049924969673,-116.50570678710938,0.04073274880648,-0.02137856371701,9.50532817840576,-0.60190886259079,3.56464338302612,0.35154256224632
594,1956104468,-0.11882489919662,-0.28096503019333,-116.50592803955078,0.03550536558032,-0.02458959445357,9.48718070983887,-0.70149713754654,3.49448633193970,0.28709718585014
595,1956112801,-0.11931502819061,-0.28077340126038,-116.50622558593750,0.02313477173448,-0.03025786951184,9.48642730712891,-0.68346464633942,3.56246638298035,0.27897745370865
596,1956121134,-0.11945508420467,-0.28091263771057,-116.50601959228516,-0.01266462821513,-0.01838928647339,9.52917861938477,-0.64278930425644,3.53326630592346,0.33842808008194
597,1956129467,-0.11943788081408,-0.28080305457115,-116.50577545166016,0.00759717635810,-0.01906632073224,9.50665092468262,-0.62104272842407,3.55283570289612,0.34575378894806
598,1956137800,-0.11955291032791,-0.28075632452965,-116.50655364990234,0.01611594483256,-0.01898609101772,9.51633071899414,-0.64079129695892,3.55644679069519,0.22052574157715
599,1956146133,-0.11965720355511,-0.28090405464172,-116.50672912597656,0.01428757980466,-0.02119964919984,9.50279712677002,-0.63661628961563,3.52194476127625,0.28812173008919
600,1956154466,-0.11951152980328,-0.28166747093201,-116.50696563720703,0.02576288394630,-0.03754858672619,9.49717712402344,-0.60928583145142,3.45898461341858,0.28730207681656
601,1956162799,-0.11901219189167,-0.28153994679451,-116.50686645507812,0.02316985093057,-0.03436288982630,9.51216125488281,-0.56376934051514,3.55560183525085,0.32344377040863
602,1956171132,-0.11909748613834,-0.28234547376633,-116.50726318359375,0.01957166939974,-0.02298936061561,9.51947212219238,-0.63628327846527,3.45365715026855,0.26642650365829
603,1956179465,-0.11958414316177,-0.28228998184204,-116.50719451904297,0.02400862984359,-0.01295080222189,9.49400806427002,-0.68310612440109,3.54620146751404,0.32434028387070
604,1956187798,-0.11976149678230,-0.28250357508659,-116.50670623779297,0.02396907657385,-0.02043120935559,9.51140403747559,-0.64670825004578,3.52486467361450,0.37234133481979
605,1956196131,-0.11927179247141,-0.28263714909554,-116.50711059570312,0.00665416661650,-0.02353309653699,9.47527885437012,-0.56666368246078,3.52448010444641,0.26499205827713
606,1956204464,-0.11928524076939,-0.28278222680092,-116.50757598876953,0.01853356696665,-0.02244405820966,9.48964500427246,-0.62744635343552,3.53262591362000,0.25825554132462
607,1956212797,-0.11897233128548,-0.28303864598274,-116.50710296630859,0.02882038801908,-0.02668030187488,9.50767803192139,-0.58702701330185,3.51146864891052,0.36514374613762
608,1956221130,-0.11794876307249,-0.28258731961250,-116.50650024414062,0.03468872234225,-0.02367703430355,9.54256629943848,-0.50244885683060,3.60411500930786,0.38737687468529
609,1956229463,-0.11749155819416,-0.28174486756325,-116.50685119628906,0.03208293393254,-0.03155528381467,9.51281547546387,-0.57014715671539,3.64138317108154,0.27439245581627
610,1956237796,-0.11763409525156,-0.28162318468094,-116.50611877441406,0.01545316725969,-0.02869571559131,9.50875663757324,-0.64263558387756,3.56397771835327,0.40333458781242
611,1956246129,-0.11801061034203,-0.28181472420692,-116.50587463378906,0.03290234506130,-0.05578044429421,9.50118350982666,-0.66909503936768,3.51940894126892,0.33773651719093
612,1956254462,-0.11820901930332,-0.28109094500542,-116.50607299804688,0.01840632967651,-0.02292346768081,9.54279804229736,-0.64970505237579,3.63579988479614,0.29140034317970
613,1956262795,-0.11851327121258,-0.28074499964714,-116.50531005859375,0.04390633851290,-0.02844316884875,9.47677421569824,-0.65972018241882,3.58229160308838,0.40648508071899
614,1956271128,-0.11893412470818,-0.28137239813805,-116.50573730468750,0.02550790272653,-0.04078276455402,9.51739788055420,-0.67639517784119,3.47443032264709,0.26243063807487
615,1956279461,-0.11884981393814,-0.28185138106346,-116.50482177734375,0.01808097399771,-0.01718693971634,9.50772666931152,-0.61410117149353,3.48283147811890,0.42190483212471
616,1956287794,-0.11894271522760,-0.28201219439507,-116.50432586669922,0.01059321872890,-0.02827863208950,9.51750946044922,-0.63766640424728,3.53065347671509,0.37410876154900
617,1956296127,-0.11952543258667,-0.28225556015968,-116.50378417968750,0.03644794225693,-0.02643877267838,9.48089981079102,-0.69386398792267,3.51267194747925,0.38210034370422
618,1956304460,-0.11965213716030,-0.28221133351326,-116.50373840332031,0.02635374478996,-0.00972153339535,9.50825119018555,-0.63997173309326,3.55450057983398,0.31960162520409
619,1956312793,-0.12030375003815,-0.28181090950966,-116.50361633300781,0.01628021709621,-0.01725881546736,9.50467109680176,-0.70362299680710,3.58936095237732,0.32649186253548
620,1956321126,-0.11968112736940,-0.28202012181282,-116.50342559814453,0.02487535588443,-0.02139170467854,9.48069763183594,-0.55044990777969,3.52427530288696,0.33786454796791
621,1956329459,-0.11970392614603,-0.28229275345802,-116.50360107421875,0.01350484974682,-0.01962436921895,9.50770378112793,-0.62836849689484,3.50806188583374,0.29204073548317
622,1956337792,-0.11974985152483,-0.28209629654884,-116.50346374511719,0.02867246046662,-0.02669983915985,9.51362228393555,-0.62970036268234,3.57399272918701,0.33281856775284
623,1956346125,-0.11989022046328,-0.28253930807114,-116.50326538085938,0.02870428562164,-0.02652338519692,9.48766517639160,-0.64161103963852,3.48698139190674,0.33379194140434
624,1956354458,-0.11980596184731,-0.28273162245750,-116.50330352783203,0.02197171747684,-0.01898336783051,9.49734115600586,-0.61594557762146,3.52709341049194,0.30981698632240
625,1956362791,-0.12001127749681,-0.28210324048996,-116.50339508056641,0.04063187539577,-0.01568069867790,9.52379035949707,-0.64893662929535,3.61559009552002,0.30366954207420
626,1956371124,-0.11983279883862,-0.28219828009605,-116.50309753417969,0.02277984842658,-0.03912365809083,9.50370693206787,-0.60464960336685,3.53923392295837,0.35082536935806
627,1956379457,-0.11947935074568,-0.28214752674103,-116.50292205810547,0.01904082298279,-0.01928348653018,9.54949188232422,-0.58149439096451,3.54574036598206,0.33491897583008
628,1956387790,-0.11905390769243,-0.28150844573975,-116.50279998779297,0.02188446931541,-0.04798187687993,9.49687671661377,-0.57503956556320,3.62737274169922,0.32974484562874
629,1956396123,-0.11927308887243,-0.28197443485260,-116.50254058837891,0.04173247516155,-0.03313102573156,9.48061370849609,-0.65057593584061,3.48329281806946,0.34762361645699
630,1956404456,-0.11987623572350,-0.28195899724960,-116.50301361083984,0.04118440300226,-0.01225790381432,9.48755359649658,-0.69806474447250,3.55224633216858,0.25656497478485
631,1956412789,-0.11978304386139,-0.28131476044655,-116.50300598144531,0.01126790232956,-0.03042901679873,9.47632980346680,-0.61338412761688,3.61812591552734,0.31486296653748
632,1956421122,-0.11967966705561,-0.28109574317932,-116.50270080566406,0.02485925890505,-0.02619697526097,9.51525974273682,-0.61374270915985,3.57524800300598,0.35202929377556
633,1956429455,-0.11977130174637,-0.28120723366737,-116.50276947021484,0.01653159596026,-0.00827915314585,9.50519371032715,-0.63536119461060,3.52911663055420,0.30623099207878
634,1956437788,-0.11992461979389,-0.28047460317612,-116.50221252441406,0.01529748924077,-0.02057679370046,9.46935939788818,-0.64363437891006,3.63679862022400,0.37984627485275
635,1956446121,-0.12000472098589,-0.28081446886063,-116.50150299072266,0.02718769758940,-0.01162362098694,9.51842880249023,-0.63349133729935,3.49989104270935,0.39987665414810
636,1956454454,-0.12073875218630,-0.28083473443985,-116.50110626220703,0.02314035221934,-0.04166493564844,9.52238368988037,-0.71343338489532,3.54737949371338,0.36022582650185
637,1956462787,-0.12066362798214,-0.28058007359505,-116.50072479248047,0.02728709392250,-0.03015394508839,9.49436759948730,-0.61607360839844,3.56981778144836,0.36096861958504
638,1956471120,-0.12087126821280,-0.28073352575302,-116.50080108642578,0.03378218039870,-0.03079779259861,9.50069713592529,-0.65136998891830,3.53178024291992,0.30290111899376
639,1956479453,-0.12071730196476,-0.28123274445534,-116.50125122070312,0.03664889186621,-0.01870971918106,9.50840950012207,-0.60564869642258,3.47937393188477,0.26268681883812
640,1956487786,-0.11980834603310,-0.27994439005852,-116.50126647949219,0.04021492600441,-0.02699518948793,9.51494884490967,-0.51617807149887,3.70454788208008,0.31363347172737
641,1956496119,-0.12099746614695,-0.27982857823372,-116.50181579589844,0.05416772514582,-0.02843966893852,9.49269104003906,-0.76794040203094,3.55396270751953,0.25049445033073
642,1956504452,-0.12146341800690,-0.27981957793236,-116.50271606445312,0.05195734277368,-0.02662843279541,9.51306056976318,-0.68233758211136,3.55150318145752,0.20428632199764
643,1956512785,-0.12115073204041,-0.28010758757591,-116.50289154052734,0.01536742504686,-0.01614482887089,9.48408508300781,-0.58638668060303,3.50624322891235,0.29101613163948
644,1956521118,-0.12055448442698,-0.28061848878860,-116.50278472900391,0.03583898022771,-0.02765412628651,9.52440357208252,-0.55452257394791,3.48943996429443,0.32805430889130
645,1956529451,-0.12083747982979,-0.28026223182678,-116.50290679931641,0.02026722580194,-0.03411080688238,9.51871395111084,-0.65907979011536,3.58323931694031,0.30005791783333
646,1956537784,-0.12059979885817,-0.28039065003395,-116.50306701660156,0.01104219816625,-0.02365037426353,9.52430534362793,-0.59740084409714,3.53439331054688,0.29575476050377
647,1956546117,-0.12021666765213,-0.28005284070969,-116.50237274169922,0.03190968930721,-0.02422229945660,9.50244522094727,-0.57816445827484,3.58183073997498,0.39582955837250
648,1956554450,-0.12067589163780,-0.27942141890526,-116.50169372558594,0.01458838954568,-0.03562791645527,9.51871204376221,-0.67987865209579,3.62491369247437,0.39659801125526
649,1956562783,-0.11991739273071,-0.27921488881111,-116.50131225585938,0.02979389391840,-0.01407908648252,9.50111865997314,-0.53367257118225,3.56612896919250,0.36227491497993
650,1956571116,-0.11991882324219,-0.27889123558998,-116.50040435791016,0.03037682734430,-0.03051964007318,9.51971054077148,-0.62483358383179,3.58897662162781,0.42380028963089
651,1956579449,-0.11986769735813,-0.27847149968147,-116.50041961669922,0.03018446825445,-0.01190510950983,9.49270915985107,-0.61866062879562,3.59135866165161,0.31032925844193
652,1956587782,-0.11978381872177,-0.27790632843971,-116.50007629394531,0.01746576279402,-0.03182504326105,9.48053264617920,-0.61581736803055,3.61738300323486,0.35802295804024
653,1956596115,-0.11926347017288,-0.27778002619743,-116.50019836425781,0.02246583439410,-0.03669303283095,9.48376464843750,-0.56207877397537,3.55637025833130,0.30008357763290
654,1956604448,-0.11917705088854,-0.27743679285049,-116.49922180175781,0.01533771771938,-0.01793780922890,9.50903511047363,-0.61453664302826,3.59166622161865,0.43299582600594
655,1956612781,-0.11956062167883,-0.27807027101517,-116.49883270263672,0.02621449902654,-0.03575035929680,9.50801372528076,-0.66960740089417,3.46459460258484,0.36322268843651
656,1956621114,-0.11969251930714,-0.27783057093620,-116.49913787841797,0.02581516653299,-0.03217131644487,9.49501037597656,-0.64314782619476,3.57829570770264,0.27764549851418
657,1956629447,-0.11976083368063,-0.27863624691963,-116.49935150146484,0.03180840238929,-0.02996261790395,9.51033306121826,-0.63272285461426,3.44507646560669,0.28794243931770
658,1956637780,-0.11978373676538,-0.27856957912445,-116.49915313720703,0.04563469067216,-0.03778194263577,9.49711799621582,-0.62900882959366,3.55893182754517,0.33835127949715
659,1956646113,-0.11971199512482,-0.27829420566559,-116.49880981445312,0.03697182238102,-0.03486656025052,9.50104331970215,-0.61445981264114,3.57363390922546,0.35738259553909
660,1956654446,-0.12044587731361,-0.27831903100014,-116.49856567382812,0.03816567361355,-0.02456252276897,9.49612903594971,-0.71430420875549,3.54720020294189,0.34288498759270
661,1956662779,-0.12004803121090,-0.27861422300339,-116.49848175048828,0.04118433222175,-0.04916653782129,9.53787994384766,-0.57716554403305,3.50473189353943,0.32490381598473
662,1956671112,-0.11990062147379,-0.27773264050484,-116.49779510498047,0.03067027591169,-0.02566216886044,9.48395156860352,-0.60808199644089,3.65480518341064,0.39652115106583
663,1956679445,-0.11963111162186,-0.27747347950935,-116.49742889404297,0.02670451626182,-0.04021755978465,9.49227809906006,-0.59061306715012,3.57258415222168,0.36032825708389
664,1956687778,-0.12009617686272,-0.27710658311844,-116.49729156494141,0.02200135216117,-0.02271991595626,9.53583908081055,-0.68277305364609,3.59440708160400,0.33035957813263
665,1956696111,-0.11949907243252,-0.27692359685898,-116.49604797363281,0.00704923085868,-0.01454500667751,9.49764537811279,-0.55173063278198,3.56205654144287,0.46854841709137
666,1956704444,-0.11921200156212,-0.27644985914230,-116.49546051025391,0.01590424403548,-0.03536069020629,9.48817729949951,-0.59030556678772,3.60639405250549,0.38463610410690
667,1956712777,-0.11932554095984,-0.27693897485733,-116.49501037597656,0.02621668390930,-0.02398360334337,9.51362133026123,-0.63835799694061,3.48201203346252,0.36596336960793
668,1956721110,-0.11918620020151,-0.27631208300591,-116.49517822265625,0.03286001086235,-0.00341794476844,9.49618625640869,-0.60966998338699,3.62593841552734,0.29344946146011
669,1956729443,-0.11950889974833,-0.27691438794136,-116.49492645263672,0.02745019644499,-0.00609679380432,9.51227855682373,-0.66164129972458,3.46935844421387,0.34360212087631
670,1956737776,-0.11926001310349,-0.27711686491966,-116.49514770507812,0.01045842841268,-0.02654186263680,9.51507854461670,-0.59727275371552,3.52450561523438,0.28712275624275
671,1956746109,-0.11970587074757,-0.27699893712997,-116.49516296386719,0.02959105744958,-0.02202988788486,9.49176406860352,-0.67713791131973,3.55544829368591,0.31611812114716
672,1956754442,-0.12043281644583,-0.27673953771591,-116.49569702148438,0.02812273241580,-0.02243178710341,9.50840854644775,-0.71320271492004,3.58124113082886,0.25090423226357
673,1956762775,-0.12012761831284,-0.27588784694672,-116.49543762207031,0.01112042460591,-0.01559122931212,9.52194595336914,-0.58805155754089,3.64368820190430,0.34903234243393
674,1956771108,-0.12060371786356,-0.27515023946762,-116.49530792236328,0.02460486814380,-0.01946223527193,9.51097679138184,-0.68241441249847,3.63897585868835,0.32777252793312
675,1956779441,-0.12119966745377,-0.27434745430946,-116.49532318115234,0.03856740891933,-0.02560071274638,9.51210117340088,-0.69686084985733,3.63702917098999,0.31299313902855
676,1956787774,-0.12187042832375,-0.27336353063583,-116.49558258056641,0.05088380351663,-0.03096438571811,9.52122402191162,-0.70559531450272,3.66848349571228,0.28517609834671
677,1956796107,-0.12189965695143,-0.27306884527206,-116.49521636962891,0.03834660351276,-0.02079026401043,9.51270866394043,-0.62834280729294,3.57570862770081,0.35628119111061
678,1956804440,-0.12226954102516,-0.27223351597786,-116.49499511718750,0.03553868457675,-0.04369447752833,9.51281452178955,-0.67047816514969,3.65114259719849,0.34091264009476
679,1956812773,-0.12282769382000,-0.27173015475273,-116.49516296386719,0.03094779327512,-0.04611302167177,9.51559734344482,-0.69137930870056,3.60050272941589,0.29150277376175
680,1956821106,-0.12139154225588,-0.27201724052429,-116.49547576904297,0.02659882232547,-0.03728943690658,9.51817893981934,-0.45401233434677,3.51636099815369,0.27475112676620
681,1956829439,-0.12118167430162,-0.27224212884903,-116.49562835693359,0.04144900292158,-0.04105800762773,9.50584316253662,-0.59904021024704,3.51446533203125,0.29603657126427
682,1956837772,-0.12089052051306,-0.27160108089447,-116.49536895751953,0.01414719317108,-0.02387057989836,9.47576045989990,-0.59176564216614,3.62637376785278,0.34670150279999
683,1956846105,-0.12027833610773,-0.27209657430649,-116.49536895751953,0.02898692339659,-0.01050606556237,9.46766662597656,-0.55106472969055,3.48196101188660,0.32121533155441
