sep=,
DeviceTag:,Right Foot
FirmwareVersion:,2.4.0
AppVersion:,2022.0.0
StartTime: ,2023-06-27_13:36:40_000 CEST
© Xsens Technologies B. V. 2005-2023

PacketCounter,SampleTimeFine,Euler_X,Euler_Y,Euler_Z,Acc_X,Acc_Y,Acc_Z,Gyr_X,Gyr_Y,Gyr_Z
0,1926822306,-0.10942205786705,-0.34955096244812,-116.62358093261719,0.00000000000000,0.00000000000000,0.00000000000000,0.00000000000000,0.00000000000000,0.00000000000000
1,1926830639,-0.11012288182974,-0.34992071986198,-116.62281799316406,0.03650622442365,-0.03246183693409,9.52246570587158,-0.70603066682816,3.48582816123962,0.38878566026688
2,1926838972,-0.11005863547325,-0.35026347637177,-116.62268066406250,0.01851171627641,-0.02803244814277,9.51372051239014,-0.61848127841949,3.49884033203125,0.30746045708656
3,1926847305,-0.11009825021029,-0.34940367937088,-116.62243652343750,0.00968783814460,-0.02743816003203,9.52259731292725,-0.62683153152466,3.63346862792969,0.31527280807495
4,1926855638,-0.11000298708677,-0.34942442178726,-116.62210845947266,0.00678264675662,-0.02071875147521,9.51519107818604,-0.61463922262192,3.53713417053223,0.33161473274231
5,1926863971,-0.11064352095127,-0.35027369856834,-116.62231445312500,0.00392177700996,-0.02445401623845,9.49164390563965,-0.69975531101227,3.42904186248779,0.27382898330688
6,1926872304,-0.11133093386889,-0.35049501061440,-116.62285614013672,0.02301384508610,-0.02905262634158,9.46684169769287,-0.70918130874634,3.51362013816833,0.22457283735275
7,1926880637,-0.11174555122852,-0.35039040446281,-116.62283325195312,0.02722092345357,-0.03785376250744,9.52485179901123,-0.67247617244720,3.54246187210083,0.30425873398781
8,1926888970,-0.11182694882154,-0.35038888454437,-116.62235260009766,0.04157681763172,-0.05441260710359,9.50183677673340,-0.63554042577744,3.53972101211548,0.34977519512177
9,1926897303,-0.11156857013702,-0.34901553392410,-116.62245941162109,0.04150339961052,-0.03603536635637,9.52932643890381,-0.59099721908569,3.69635152816772,0.27088332176208
10,1926905636,-0.11162814497948,-0.34880387783051,-116.62231445312500,0.01287556532770,-0.03783342614770,9.50011444091797,-0.63395237922668,3.56510472297668,0.31066229939461
11,1926913969,-0.11145605891943,-0.34902039170265,-116.62288665771484,0.01249742135406,-0.02444525063038,9.47534275054932,-0.60272854566574,3.50532078742981,0.21612009406090
12,1926922302,-0.11112871766090,-0.34934350848198,-116.62220001220703,0.03409143909812,-0.03146593645215,9.48820972442627,-0.58559262752533,3.50135064125061,0.37439045310020
13,1926930635,-0.11176272481680,-0.34958094358444,-116.62207794189453,0.02338649705052,-0.02566041424870,9.51736831665039,-0.69919186830521,3.50101804733276,0.30538576841354
14,1926938968,-0.11133921146393,-0.35043457150459,-116.62235260009766,0.02614487707615,-0.02488761954010,9.51232624053955,-0.57539820671082,3.43749475479126,0.25894713401794
15,1926947301,-0.11158283054829,-0.34987863898277,-116.62112426757812,0.01666500233114,-0.03845661506057,9.50000953674316,-0.65126752853394,3.59686613082886,0.43166387081146
16,1926955634,-0.11098578572273,-0.34973815083504,-116.62031555175781,0.03547247499228,-0.03425569087267,9.50878143310547,-0.55311387777328,3.55667757987976,0.38919550180435
17,1926963967,-0.11036148667336,-0.35027936100960,-116.61962127685547,0.01711126416922,-0.00529228383675,9.49359893798828,-0.54760670661926,3.46536254882812,0.37920594215393
18,1926972300,-0.11030709743500,-0.35030400753021,-116.61978149414062,0.01301652565598,-0.00342035572976,9.51016521453857,-0.62055605649948,3.53677511215210,0.27193352580070
19,1926980633,-0.11042293906212,-0.35054847598076,-116.62012481689453,0.03556366637349,-0.01086159236729,9.48991966247559,-0.63728219270706,3.50173521041870,0.25892147421837
20,1926988966,-0.11074622720480,-0.35036680102348,-116.61984252929688,0.01706881634891,-0.01338017079979,9.48910140991211,-0.66397225856781,3.56156992912292,0.32726028561592
21,1926997299,-0.11140475422144,-0.35083714127541,-116.62008666992188,0.02477245032787,-0.01669935137033,9.50642681121826,-0.70218861103058,3.47361040115356,0.26184150576591
22,1927005632,-0.11153134703636,-0.35173076391220,-116.61965942382812,0.02399853989482,-0.02019808441401,9.50912952423096,-0.64068895578384,3.43270468711853,0.34234708547592
23,1927013965,-0.11170738190413,-0.35195106267929,-116.61991119384766,0.03672918304801,-0.02333980239928,9.50440406799316,-0.64360892772675,3.50416851043701,0.26284050941467
24,1927022298,-0.11333227902651,-0.35226649045944,-116.62020874023438,0.00695623271167,-0.05094828829169,9.50796699523926,-0.82106435298920,3.50234985351562,0.25776886940002
25,1927030631,-0.11324553936720,-0.35273069143295,-116.62022399902344,0.00244391080923,-0.03854956105351,9.51511096954346,-0.61399883031845,3.47517323493958,0.28912067413330
26,1927038964,-0.11354228854179,-0.35284405946732,-116.61941528320312,0.01413792930543,-0.04357622191310,9.48402023315430,-0.66028380393982,3.52637600898743,0.38817092776299
27,1927047297,-0.11352360248566,-0.35230615735054,-116.61882781982422,0.01923403330147,-0.03346975520253,9.49569702148438,-0.61973637342453,3.59491944313049,0.37400621175766
28,1927055630,-0.11406158655882,-0.35290288925171,-116.61874389648438,0.02697654627264,-0.02089200727642,9.49311542510986,-0.69158440828323,3.46810364723206,0.30118498206139
29,1927063963,-0.11377687752247,-0.35331100225449,-116.61908721923828,0.01539379544556,-0.04308197647333,9.47812652587891,-0.58856391906738,3.48121809959412,0.25256916880608
30,1927072296,-0.11427957564592,-0.35349592566490,-116.61914062500000,0.01637512445450,-0.03477575629950,9.51169586181641,-0.68520647287369,3.51802587509155,0.28712278604507
31,1927080629,-0.11423107236624,-0.35431882739067,-116.61940002441406,0.02342870645225,-0.02432112023234,9.52812004089355,-0.61720061302185,3.43047642707825,0.26698997616768
32,1927088962,-0.11381375044584,-0.35449019074440,-116.61919403076172,0.01489459350705,-0.02914696000516,9.49042987823486,-0.57560312747955,3.51928091049194,0.31855142116547
33,1927097295,-0.11354214698076,-0.35448145866394,-116.61936187744141,0.02240674383938,-0.01061427406967,9.50882911682129,-0.59022879600525,3.53180599212646,0.27247139811516
34,1927105628,-0.11339341104031,-0.35449537634850,-116.61920928955078,0.02307734824717,-0.02226760238409,9.50026798248291,-0.60872238874435,3.53787684440613,0.31214788556099
35,1927113961,-0.11349557340145,-0.35456869006157,-116.61910247802734,0.02257186733186,-0.02926754578948,9.50030994415283,-0.63587337732315,3.52163696289062,0.30082640051842
36,1927122294,-0.11278503388166,-0.35392269492149,-116.61854553222656,0.02016478590667,-0.02776426076889,9.50757789611816,-0.53925645351410,3.61774158477783,0.35938051342964
37,1927130627,-0.11302153021097,-0.35428771376610,-116.61801147460938,0.01912208832800,-0.03397492319345,9.49779891967773,-0.65116506814957,3.48559784889221,0.36604022979736
38,1927138960,-0.11248933523893,-0.35471764206886,-116.61785888671875,0.01893312670290,-0.04818762838840,9.53379058837891,-0.56189942359924,3.48826169967651,0.31076470017433
39,1927147293,-0.11278157681227,-0.35461771488190,-116.61706542968750,0.01461731083691,-0.02059649303555,9.48718357086182,-0.65718448162079,3.54176998138428,0.38614743947983
40,1927155626,-0.11353183537722,-0.35445994138718,-116.61711120605469,0.02452608011663,-0.01940571516752,9.53014659881592,-0.71563619375229,3.55903434753418,0.28643119335175
41,1927163959,-0.11402425915003,-0.35454323887825,-116.61702728271484,0.01923885010183,-0.01388538349420,9.48015308380127,-0.68156921863556,3.52002358436584,0.30810084939003
42,1927172292,-0.11364176869392,-0.35420650243759,-116.61687469482422,0.01533487811685,-0.02899030968547,9.53055763244629,-0.58164805173874,3.57993507385254,0.31214785575867
43,1927180625,-0.11290672421455,-0.35370203852654,-116.61779022216797,0.01059333421290,-0.01724581420422,9.50388240814209,-0.53426170349121,3.59102630615234,0.18043950200081
44,1927188958,-0.11259979009628,-0.35391625761986,-116.61770629882812,0.02388328313828,-0.01845719665289,9.52574539184570,-0.58966535329819,3.51392745971680,0.30341345071793
45,1927197291,-0.11178348213434,-0.35530677437782,-116.61737060546875,0.01121913548559,0.00962346792221,9.45864391326904,-0.52422100305557,3.36423778533936,0.33371508121490
46,1927205624,-0.11195455491543,-0.35478496551514,-116.61699676513672,0.01347918808460,-0.02849120832980,9.50567245483398,-0.64691311120987,3.60237288475037,0.33696806430817
47,1927213957,-0.11289013922215,-0.35392615199089,-116.61605834960938,0.02537173405290,-0.02114838548005,9.51327991485596,-0.73395013809204,3.63293027877808,0.40835484862328
48,1927222290,-0.11318463832140,-0.35437601804733,-116.61569976806641,0.03670488670468,-0.03081974200904,9.48715209960938,-0.66156452894211,3.48593115806580,0.33297225832939
49,1927230623,-0.11296766251326,-0.35474953055382,-116.61538696289062,0.02373846434057,-0.02448736689985,9.48014640808105,-0.59650433063507,3.48539328575134,0.33128172159195
50,1927238956,-0.11228630691767,-0.35483232140541,-116.61559295654297,0.02355852536857,-0.03737612813711,9.52445125579834,-0.54404646158218,3.52998757362366,0.26780962944031
51,1927247289,-0.11225286871195,-0.35481905937195,-116.61580657958984,0.00178449368104,-0.02484940923750,9.49804496765137,-0.61802029609680,3.53149890899658,0.26097065210342
52,1927255622,-0.11173541843891,-0.35407939553261,-116.61550903320312,0.00014557945542,-0.01756269298494,9.53270816802979,-0.56423038244247,3.62847399711609,0.32951432466507
53,1927263955,-0.11146184056997,-0.35449868440628,-116.61533355712891,0.02418284304440,-0.01556501537561,9.48189163208008,-0.58928114175797,3.47873353958130,0.32451957464218
54,1927272288,-0.11150634288788,-0.35522529482841,-116.61552429199219,0.02524660713971,-0.02182769961655,9.50245761871338,-0.63210815191269,3.45265841484070,0.27003812789917
55,1927280621,-0.11111396551132,-0.35553464293480,-116.61547088623047,0.03385437652469,-0.03640691936016,9.51769351959229,-0.57552617788315,3.49179625511169,0.30074954032898
56,1927288954,-0.11087131500244,-0.35522103309631,-116.61528778076172,0.03072174265981,-0.04277433082461,9.49913883209229,-0.59612005949020,3.57757830619812,0.31365910172462
57,1927297287,-0.11082860827446,-0.35561209917068,-116.61504364013672,0.01315808668733,-0.02480100281537,9.49723911285400,-0.61763608455658,3.48360037803650,0.32405853271484
58,1927305620,-0.11081774532795,-0.35524997115135,-116.61471557617188,0.00588746275753,-0.04198044165969,9.51240158081055,-0.62465429306030,3.58329057693481,0.33228063583374
59,1927313953,-0.11049757897854,-0.35611271858215,-116.61396789550781,0.03197181224823,-0.02727512829006,9.50494003295898,-0.58474737405777,3.42619872093201,0.38819658756256
60,1927322286,-0.11052379757166,-0.35562571883202,-116.61279296875000,0.01689715497196,-0.05482491105795,9.53278923034668,-0.62811219692230,3.59824919700623,0.43443021178246
61,1927330619,-0.11127743124962,-0.35590201616287,-116.61309051513672,0.03523232042789,-0.01427337061614,9.46723842620850,-0.71286982297897,3.49727821350098,0.25390109419823
62,1927338952,-0.11130001395941,-0.35585466027260,-116.61329650878906,0.02427456155419,-0.02029141783714,9.53935050964355,-0.62944418191910,3.54533004760742,0.26821944117546
63,1927347285,-0.11150908470154,-0.35602566599846,-116.61370849609375,0.00912273768336,-0.01974233612418,9.49844837188721,-0.64699000120163,3.50957298278809,0.24288700520992
64,1927355618,-0.11084453016520,-0.35637006163597,-116.61293029785156,0.01738651841879,-0.02004971355200,9.53092288970947,-0.54563438892365,3.49830222129822,0.38532772660255
65,1927363951,-0.11062687635422,-0.35658323764801,-116.61267089843750,0.01961116120219,-0.00865518301725,9.49453067779541,-0.59676045179367,3.50404024124146,0.32472452521324
66,1927372284,-0.11064961552620,-0.35599848628044,-116.61296844482422,0.01545660011470,-0.01721554808319,9.49493694305420,-0.62980276346207,3.61000609397888,0.25717970728874
67,1927380617,-0.11073697358370,-0.35542958974838,-116.61362457275391,0.04256748035550,-0.03205634281039,9.51082038879395,-0.63338881731033,3.59755754470825,0.21612009406090
68,1927388950,-0.11021967232227,-0.35610783100128,-116.61403656005859,0.03360106050968,-0.02429755404592,9.50752258300781,-0.56440967321396,3.45860075950623,0.24327121675014
69,1927397283,-0.11139418184757,-0.35637152194977,-116.61328125000000,0.03430936113000,-0.03587316349149,9.51883888244629,-0.76220273971558,3.49837923049927,0.38440561294556
70,1927405616,-0.11169446259737,-0.35698050260544,-116.61322784423828,0.04438270628452,-0.04334311932325,9.50469875335693,-0.66166687011719,3.46674585342407,0.29852107167244
71,1927413949,-0.11193560808897,-0.35637509822845,-116.61231231689453,0.02324838936329,-0.02349171414971,9.48592662811279,-0.65108823776245,3.60291123390198,0.40149033069611
72,1927422282,-0.11197968572378,-0.35706940293312,-116.61295318603516,0.02604394219816,-0.03700603172183,9.50762081146240,-0.63192880153656,3.45660257339478,0.21442955732346
73,1927430615,-0.11215789616108,-0.35796993970871,-116.61231231689453,0.03136068955064,-0.03868588432670,9.51896667480469,-0.64430046081543,3.42148542404175,0.36714160442352
74,1927438948,-0.11218685656786,-0.35757300257683,-116.61274719238281,0.02680850215256,-0.03547434508801,9.49609756469727,-0.62964910268784,3.58759355545044,0.24029992520809
75,1927447281,-0.11134617030621,-0.35707330703735,-116.61169433593750,0.04096497595310,-0.03598455339670,9.51488494873047,-0.52109599113464,3.58859252929688,0.41096758842468
76,1927455614,-0.11062018573284,-0.35732024908066,-116.61084747314453,0.01293238718063,-0.03455494716763,9.51720237731934,-0.53723293542862,3.51034116744995,0.39436954259872
77,1927463947,-0.11066199094057,-0.35722896456718,-116.61097717285156,0.02688344195485,-0.01114920340478,9.51166248321533,-0.62872701883316,3.54169321060181,0.28048866987228
78,1927472280,-0.11125675588846,-0.35755386948586,-116.60987854003906,0.01063475571573,-0.01810178719461,9.50421237945557,-0.69591313600540,3.50071072578430,0.42257085442543
79,1927480613,-0.11098582297564,-0.35706534981728,-116.60876464843750,0.00575492344797,-0.02027064375579,9.49592971801758,-0.58994698524475,3.58792662620544,0.42262205481529
80,1927488946,-0.11027163267136,-0.35672378540039,-116.60854339599609,0.02293752506375,-0.02088337577879,9.50786304473877,-0.54020428657532,3.58098554611206,0.32039570808411
81,1927497279,-0.11006036400795,-0.35666269063950,-116.60790252685547,0.03222407773137,-0.02434084750712,9.49241542816162,-0.59612017869949,3.53739023208618,0.37083011865616
82,1927505612,-0.10957218706608,-0.35723334550858,-116.60825347900391,0.03958828374743,-0.00730770360678,9.48311233520508,-0.56712478399277,3.47148466110229,0.25008460879326
83,1927513945,-0.10928535461426,-0.35783872008324,-116.60771179199219,0.01308652386069,-0.00720647070557,9.48352718353271,-0.58815407752991,3.45683360099792,0.35541033744812
84,1927522278,-0.10942150652409,-0.35755911469460,-116.60749053955078,0.03350502252579,-0.01875287294388,9.49800968170166,-0.64250749349594,3.57340359687805,0.31819286942482
85,1927530611,-0.11002699285746,-0.35783550143242,-116.60731506347656,0.03194306045771,-0.02604528702796,9.49573421478271,-0.69604116678238,3.49592041969299,0.30994501709938
86,1927538944,-0.11024029552937,-0.35830405354500,-116.60674285888672,0.01082245633006,-0.03411823511124,9.50016403198242,-0.65096020698547,3.48339533805847,0.36189073324203
87,1927547277,-0.11012327671051,-0.35786548256874,-116.60649108886719,0.02852124534547,-0.04441818594933,9.51001739501953,-0.60780012607574,3.58277821540833,0.31312119960785
88,1927555610,-0.10986307263374,-0.35832965373993,-116.60574340820312,0.00716162472963,-0.03276919946074,9.51705074310303,-0.59396845102310,3.48393297195435,0.38291999697685
89,1927563943,-0.10920591652393,-0.35837045311928,-116.60500335693359,0.00655193347484,-0.02519258484244,9.48664474487305,-0.54437929391861,3.52450561523438,0.37677258253098
90,1927572276,-0.10912885516882,-0.35890272259712,-116.60575866699219,0.01366655621678,-0.03919521346688,9.48986244201660,-0.61702132225037,3.47630023956299,0.20177616178989
91,1927580609,-0.10929532349110,-0.35793501138687,-116.60550689697266,0.01135509833694,-0.03380161151290,9.49819755554199,-0.64173895120621,3.64594268798828,0.31947347521782
92,1927588942,-0.10902961343527,-0.35807934403419,-116.60597229003906,0.02769613265991,-0.02120490372181,9.49124813079834,-0.59491628408432,3.52243137359619,0.23517709970474
93,1927597275,-0.10965393483639,-0.35849723219872,-116.60610961914062,0.02886774018407,-0.03788203001022,9.49569702148438,-0.69821852445602,3.47950196266174,0.25538673996925
94,1927605608,-0.10911076515913,-0.35785660147667,-116.60608673095703,0.02850589342415,-0.02048060856760,9.48966217041016,-0.56041383743286,3.61676836013794,0.29677933454514
95,1927613941,-0.10870004445314,-0.35828182101250,-116.60643768310547,0.01483127847314,-0.02688797377050,9.51318359375000,-0.57357954978943,3.47927117347717,0.25397795438766
96,1927622274,-0.10843591392040,-0.35913062095642,-116.60609436035156,0.04129972681403,-0.00273801386356,9.51260375976562,-0.59337943792343,3.43803262710571,0.33348456025124
97,1927630607,-0.10919752717018,-0.35927474498749,-116.60650634765625,0.01906495727599,-0.03035173006356,9.50781250000000,-0.71376627683640,3.51221132278442,0.24063295125961
98,1927638940,-0.10921494662762,-0.35916537046432,-116.60567474365234,0.01935325935483,-0.02539243176579,9.48711299896240,-0.62888073921204,3.55245113372803,0.39344748854637
99,1927647273,-0.10959410667419,-0.35910624265671,-116.60649108886719,0.02728444896638,-0.01841122098267,9.50372123718262,-0.66737896203995,3.53736472129822,0.18820060789585
100,1927655606,-0.10984069108963,-0.35941225290298,-116.60602569580078,0.00424504186958,-0.03833641856909,9.49851608276367,-0.65493047237396,3.50275969505310,0.34836640954018
101,1927663939,-0.10928579419851,-0.35970324277878,-116.60563659667969,0.02646476216614,-0.01225333008915,9.50095462799072,-0.55718648433685,3.49545979499817,0.33412489295006
102,1927672272,-0.10861282795668,-0.36005517840385,-116.60557556152344,0.01789494045079,-0.02355451881886,9.51307010650635,-0.54386711120605,3.49773931503296,0.29959690570831
103,1927680605,-0.10851094871759,-0.35999614000320,-116.60595703125000,0.01596966944635,-0.00795000325888,9.49804878234863,-0.61153990030289,3.53698039054871,0.24954672157764
104,1927688938,-0.10816120356321,-0.35942584276199,-116.60549926757812,0.00199976610020,-0.02065118961036,9.49982643127441,-0.58354336023331,3.60795664787292,0.34974950551987
105,1927697271,-0.10847399383783,-0.35845088958740,-116.60555267333984,0.01756342500448,-0.01589452289045,9.51080322265625,-0.66064232587814,3.64691638946533,0.29601094126701
106,1927705604,-0.10795600712299,-0.35767126083374,-116.60572814941406,0.01723592169583,-0.04154359176755,9.47459506988525,-0.56248861551285,3.63344287872314,0.27034541964531
107,1927713937,-0.10796576738358,-0.35805651545525,-116.60589599609375,0.02319205179811,-0.02153713256121,9.49371528625488,-0.62514108419418,3.48436880111694,0.28112903237343
108,1927722270,-0.10750958323479,-0.35875770449638,-116.60600280761719,0.01651684008539,-0.03380763903260,9.50233268737793,-0.57150483131409,3.45552706718445,0.27941289544106
109,1927730603,-0.10697307437658,-0.35844406485558,-116.60559082031250,0.02654477767646,-0.02841320261359,9.52535343170166,-0.55734014511108,3.56879281997681,0.34731617569923
110,1927738936,-0.10629813373089,-0.35873568058014,-116.60508728027344,0.02094892226160,-0.00391891365871,9.52919292449951,-0.54468679428101,3.50478339195251,0.35300260782242
111,1927747269,-0.10678694397211,-0.35880306363106,-116.60545349121094,0.00813988130540,-0.03860026970506,9.51407432556152,-0.68197906017303,3.52250838279724,0.24647298455238
112,1927755602,-0.10690284520388,-0.35879969596863,-116.60494995117188,0.02568871341646,-0.02459442242980,9.51805686950684,-0.63869100809097,3.54005360603333,0.35384786128998
113,1927763935,-0.10660580545664,-0.35881805419922,-116.60477447509766,0.01692065224051,-0.02494684047997,9.51675415039062,-0.58692461252213,3.52886056900024,0.31875637173653
114,1927772268,-0.10724098235369,-0.35872772336006,-116.60455322265625,0.01515294145793,-0.02820262126625,9.48925781250000,-0.70188134908676,3.55078625679016,0.31752687692642
115,1927780601,-0.10705199092627,-0.35896626114845,-116.60489654541016,0.03198195248842,-0.02566961757839,9.50836563110352,-0.60144782066345,3.50135064125061,0.25513052940369
116,1927788934,-0.10724014788866,-0.35902947187424,-116.60475921630859,0.03036236204207,-0.03474361076951,9.50359249114990,-0.64711797237396,3.53242063522339,0.30810078978539
117,1927797267,-0.10716105252504,-0.35961630940437,-116.60437774658203,-0.00094574817922,-0.03207945823669,9.52054691314697,-0.61461359262466,3.45921540260315,0.32582587003708
118,1927805600,-0.10724043101072,-0.35994449257851,-116.60494995117188,0.02472459897399,-0.05348591879010,9.51310443878174,-0.63579648733139,3.50081253051758,0.22198575735092
119,1927813933,-0.10724746435881,-0.35973995923996,-116.60536193847656,0.00014635385014,-0.03300841525197,9.49265766143799,-0.62222093343735,3.55416703224182,0.25630882382393
120,1927822266,-0.10730907320976,-0.35960027575493,-116.60510253906250,0.01163316890597,-0.02236382290721,9.50769519805908,-0.63438779115677,3.55634474754333,0.32211184501648
121,1927830599,-0.10806682705879,-0.35942131280899,-116.60527801513672,0.00733252614737,-0.02663668058813,9.52720832824707,-0.71222949028015,3.55216956138611,0.27139565348625
122,1927838932,-0.10819021612406,-0.35930591821671,-116.60527801513672,0.02375508099794,-0.03060190938413,9.50250625610352,-0.64130365848541,3.55339908599854,0.29127231240273
123,1927847265,-0.10834069550037,-0.35956892371178,-116.60564422607422,0.04715925827622,-0.03238055855036,9.51113033294678,-0.63986921310425,3.49858450889587,0.25948503613472
124,1927855598,-0.10862704366446,-0.35971647500992,-116.60585021972656,0.03221430256963,-0.01759523525834,9.51105594635010,-0.66138517856598,3.52212405204773,0.26688754558563
125,1927863931,-0.10876753181219,-0.36005941033363,-116.60646820068359,-0.00148066261318,-0.04117132723331,9.47241401672363,-0.63912636041641,3.48890209197998,0.21409657597542
126,1927872264,-0.10970328003168,-0.36028712987900,-116.60605621337891,0.01741871796548,-0.02996303141117,9.51662445068359,-0.73797172307968,3.51244187355042,0.34065654873848
127,1927880597,-0.10935209691525,-0.36008191108704,-116.60559082031250,0.01891365461051,-0.03500135242939,9.50199604034424,-0.58075159788132,3.55475664138794,0.34206533432007
128,1927888930,-0.10909909754992,-0.36103314161301,-116.60572814941406,0.03387851268053,-0.01356428582221,9.50100708007812,-0.59512108564377,3.42576289176941,0.27395704388618
129,1927897263,-0.10913775861263,-0.36169853806496,-116.60560607910156,0.02229459583759,-0.03468582779169,9.49546718597412,-0.62803548574448,3.44991755485535,0.30302920937538
130,1927905596,-0.10849696397781,-0.36239376664162,-116.60524749755859,0.03207783401012,-0.02354301512241,9.49596309661865,-0.54883617162704,3.45629525184631,0.33509817719460
131,1927913929,-0.10832340270281,-0.36303052306175,-116.60531616210938,0.01978960074484,-0.03999054804444,9.47918701171875,-0.60152471065521,3.45386171340942,0.28632870316505
132,1927922262,-0.10742987692356,-0.36293315887451,-116.60449981689453,0.02339367195964,-0.03617360070348,9.48958110809326,-0.51699775457382,3.55147790908813,0.38998955488205
133,1927930595,-0.10763969272375,-0.36299589276314,-116.60362243652344,0.00740402098745,-0.02941585704684,9.51127147674561,-0.64832186698914,3.52209806442261,0.39098846912384
134,1927938928,-0.10698752105236,-0.36288985610008,-116.60350036621094,0.00370251410641,-0.02526214905083,9.50488376617432,-0.54658216238022,3.55265593528748,0.30833134055138
135,1927947261,-0.10775806754827,-0.36305356025696,-116.60367584228516,0.02450876682997,-0.06490702182055,9.47727680206299,-0.71571302413940,3.51039290428162,0.26465913653374
136,1927955594,-0.10754090547562,-0.36305540800095,-116.60344696044922,0.03688597679138,-0.02346341498196,9.48423290252686,-0.59991091489792,3.53943896293640,0.32167631387711
137,1927963927,-0.10752288997173,-0.36337375640869,-116.60372161865234,0.03331837430596,-0.02561009116471,9.48245143890381,-0.62104278802872,3.49238586425781,0.26883423328400
138,1927972260,-0.10808232426643,-0.36240109801292,-116.60418701171875,0.01890691556036,-0.04695335775614,9.51399898529053,-0.69222468137741,3.65703392028809,0.23778973519802
139,1927980593,-0.10816093534231,-0.36157664656639,-116.60341644287109,0.01688663661480,-0.03229003772140,9.50892066955566,-0.63287645578384,3.62890934944153,0.39662358164787
140,1927988926,-0.10856094211340,-0.36065623164177,-116.60266876220703,0.01832439005375,-0.02495359443128,9.48925876617432,-0.67309081554413,3.65029740333557,0.38115262985229
141,1927997259,-0.10885883867741,-0.36033663153648,-116.60298156738281,0.01629541814327,-0.02977120503783,9.50364208221436,-0.65738946199417,3.56863951683044,0.24970041215420
142,1928005592,-0.10924648493528,-0.36118215322495,-116.60337829589844,0.02828212268651,-0.04987290129066,9.48347949981689,-0.67411547899246,3.43803262710571,0.24403963983059
143,1928013925,-0.10864108800888,-0.36093181371689,-116.60313415527344,0.01938458532095,-0.02514034882188,9.49008083343506,-0.54965585470200,3.56021213531494,0.32907882332802
144,1928022258,-0.10966823995113,-0.36029660701752,-116.60263061523438,0.00757561810315,-0.03688842803240,9.49072933197021,-0.74831992387772,3.61612796783447,0.35318186879158
145,1928030591,-0.11096078902483,-0.36035925149918,-116.60276794433594,0.02526536025107,-0.01725075393915,9.49872112274170,-0.77833968400955,3.52266168594360,0.28814736008644
146,1928038924,-0.11114392429590,-0.36041298508644,-116.60292816162109,0.01662738062441,-0.02193314023316,9.50039386749268,-0.64757907390594,3.53357362747192,0.27344477176666
147,1928047257,-0.11094193160534,-0.36049041152000,-116.60263061523438,0.01593194343150,-0.02881733328104,9.52283287048340,-0.59852784872055,3.52127885818481,0.33589226007462
148,1928055590,-0.11049380898476,-0.36079502105713,-116.60268402099609,0.02478154562414,-0.02715962193906,9.48848628997803,-0.57124871015549,3.50340008735657,0.28686663508415
149,1928063923,-0.10977417975664,-0.36113786697388,-116.60211944580078,0.03483127430081,-0.01838691718876,9.52102756500244,-0.53608036041260,3.48882555961609,0.35963669419289
150,1928072256,-0.10948511958122,-0.36073264479637,-116.60124969482422,0.01912712305784,-0.03246080502868,9.53160381317139,-0.58946031332016,3.58841276168823,0.40054252743721
151,1928080589,-0.10903114080429,-0.36128327250481,-116.60040283203125,0.03318132832646,-0.01423121709377,9.49133586883545,-0.56727856397629,3.46364688873291,0.39165449142456
152,1928088922,-0.10847616195679,-0.36044868826866,-116.59959411621094,0.00191272771917,-0.03005892038345,9.51747131347656,-0.55795484781265,3.63992357254028,0.39055302739143
153,1928097255,-0.10782955586910,-0.36063042283058,-116.59891510009766,0.01324134692550,-0.02473178133368,9.50128841400146,-0.54504525661469,3.50772833824158,0.37572237849236
154,1928105588,-0.10823704302311,-0.36108285188675,-116.59826660156250,0.02658323571086,-0.02943301014602,9.51978015899658,-0.67478144168854,3.48534202575684,0.36988237500191
155,1928113921,-0.10799045115709,-0.36027085781097,-116.59848785400391,0.02612314186990,-0.01883770711720,9.49803733825684,-0.59286701679230,3.62686038017273,0.26020219922066
156,1928122254,-0.10832022130489,-0.36098363995552,-116.59839630126953,0.01687416993082,-0.02613773569465,9.50693893432617,-0.66522735357285,3.45434880256653,0.30413064360619
157,1928130587,-0.10841119289398,-0.36141046881676,-116.59803771972656,0.01306936517358,-0.02884450927377,9.48461341857910,-0.63315820693970,3.47896361351013,0.33158910274506
158,1928138920,-0.10831072926521,-0.36126926541328,-116.59796905517578,0.02648550830781,-0.02123673073947,9.49807929992676,-0.61361467838287,3.55654954910278,0.29939201474190
159,1928147253,-0.10767003148794,-0.36111047863960,-116.59934997558594,0.04583673551679,-0.04077876731753,9.48507881164551,-0.54663342237473,3.54973626136780,0.11927268654108
160,1928155586,-0.10653358697891,-0.36054769158363,-116.59945678710938,0.01113918609917,-0.01345424912870,9.50220966339111,-0.48912942409515,3.60762405395508,0.27815777063370
161,1928163919,-0.10664552450180,-0.36053031682968,-116.59941864013672,0.01228094287217,-0.03866438567638,9.51692962646484,-0.63559168577194,3.53216481208801,0.30213275551796
162,1928172252,-0.10697370767593,-0.36099877953529,-116.59906005859375,0.01863262057304,-0.03979981690645,9.50320529937744,-0.66576528549194,3.48329281806946,0.33443227410316
163,1928180585,-0.10787779092789,-0.36087110638618,-116.59940338134766,0.02035930566490,-0.03434292972088,9.48107528686523,-0.72998017072678,3.54489517211914,0.25162148475647
164,1928188918,-0.10781913995743,-0.36148610711098,-116.59931182861328,0.01331213302910,-0.01900437474251,9.49032306671143,-0.61830204725266,3.46590042114258,0.30356711149216
165,1928197251,-0.10748212039471,-0.36086222529411,-116.59883117675781,0.02194050885737,-0.02655355259776,9.52048778533936,-0.58236515522003,3.60488295555115,0.33066692948341
166,1928205584,-0.10815633833408,-0.36092671751976,-116.59919738769531,0.01094055455178,-0.04334790259600,9.51413249969482,-0.70800304412842,3.53180599212646,0.24795860052109
167,1928213917,-0.10765045881271,-0.36044269800186,-116.59865570068359,0.01087052095681,-0.02867371588945,9.46716117858887,-0.56107974052429,3.58843851089478,0.36455455422401
168,1928222250,-0.10754716396332,-0.36024695634842,-116.59884643554688,0.01943484693766,-0.01994028687477,9.49334907531738,-0.61269253492355,3.56361913681030,0.26883420348167
169,1928230583,-0.10826278477907,-0.36035236716270,-116.59921264648438,0.04135099798441,-0.01031948812306,9.50089454650879,-0.70874583721161,3.51789736747742,0.25469514727592
170,1928238916,-0.10824112594128,-0.36031332612038,-116.59866333007812,0.03501833975315,-0.02020692266524,9.50621414184570,-0.62324559688568,3.54438281059265,0.35722893476486
171,1928247249,-0.10789392888546,-0.35960662364960,-116.59899139404297,0.02284303680062,-0.03983381390572,9.50466442108154,-0.57998299598694,3.61459088325500,0.25395229458809
172,1928255582,-0.10725717991590,-0.35947856307030,-116.59912872314453,0.03389906510711,-0.03799551725388,9.47944736480713,-0.54963028430939,3.55516648292542,0.27623677253723
173,1928263915,-0.10757510364056,-0.35988047719002,-116.59888458251953,0.01637260988355,-0.02708688937128,9.49140357971191,-0.66156452894211,3.48147416114807,0.32805436849594
174,1928272248,-0.10764820128679,-0.35965883731842,-116.59910583496094,0.02102281711996,-0.02854410558939,9.55005741119385,-0.63351690769196,3.56679534912109,0.26522260904312
175,1928280581,-0.10736642032862,-0.35959491133690,-116.59962463378906,0.01923128031194,-0.02650661207736,9.50329971313477,-0.58925551176071,3.53726220130920,0.22977250814438
176,1928288914,-0.10724975913763,-0.35935446619987,-116.60005950927734,0.01686562411487,-0.03841703385115,9.53211021423340,-0.61276936531067,3.56861352920532,0.23883992433548
177,1928297247,-0.10810609161854,-0.35957461595535,-116.59936523437500,0.02275091968477,-0.03601552173495,9.52115917205811,-0.72478044033051,3.50414276123047,0.38340672850609
178,1928305580,-0.10847403109074,-0.36014702916145,-116.59904479980469,0.02133774757385,-0.01421165280044,9.50182628631592,-0.66899251937866,3.47107434272766,0.32969361543655
179,1928313913,-0.10829398781061,-0.36066848039627,-116.59906005859375,0.02223565801978,-0.04894286766648,9.48153972625732,-0.60085868835449,3.46705317497253,0.28750696778297
180,1928322246,-0.10829753428698,-0.36147275567055,-116.59878540039062,0.03664453700185,-0.03193831816316,9.48180103302002,-0.62551248073578,3.44337320327759,0.32635101675987
181,1928330579,-0.10843750089407,-0.36219027638435,-116.59841918945312,0.03201404586434,-0.02254674397409,9.47831058502197,-0.63840925693512,3.44374442100525,0.33043646812439
182,1928338912,-0.10812583565712,-0.36254608631134,-116.59817504882812,0.02692422829568,-0.02218501456082,9.48661327362061,-0.58889693021774,3.49699640274048,0.32282906770706
183,1928347245,-0.10810837149620,-0.36225369572639,-116.59873199462891,0.01398779917508,-0.02397199161351,9.50741100311279,-0.61991578340530,3.56502795219421,0.23412694036961
184,1928355578,-0.10834591090679,-0.36186784505844,-116.59852600097656,0.02324659749866,-0.03317726776004,9.51128959655762,-0.65436679124832,3.58605670928955,0.31696331501007
185,1928363911,-0.10870338231325,-0.36144402623177,-116.59793090820312,0.02558942325413,-0.01739681325853,9.51446819305420,-0.66417700052261,3.58060050010681,0.36552786827087
186,1928372244,-0.10891154408455,-0.36070761084557,-116.59734344482422,0.03239342942834,-0.01898926310241,9.50906181335449,-0.65055036544800,3.62785935401917,0.36368367075920
187,1928380577,-0.10938790440559,-0.36007228493690,-116.59722137451172,0.04005891084671,-0.03375198319554,9.49874019622803,-0.67980176210403,3.60588240623474,0.30538570880890
188,1928388910,-0.10836518555880,-0.35985085368156,-116.59691619873047,0.03570936247706,-0.02789555676281,9.49255943298340,-0.50288432836533,3.56623172760010,0.32956558465958
189,1928397243,-0.10847214609385,-0.35909503698349,-116.59729003906250,0.00417989306152,-0.02050611004233,9.47517013549805,-0.63559156656265,3.61968827247620,0.25605270266533
190,1928405576,-0.10826994478703,-0.35890924930573,-116.59746551513672,0.02358561754227,-0.01534944772720,9.50335693359375,-0.60090994834900,3.56192851066589,0.27290686964989
191,1928413909,-0.10842086374760,-0.35889610648155,-116.59748840332031,0.03739224746823,-0.02328111231327,9.48914051055908,-0.63999724388123,3.53090953826904,0.28182059526443
192,1928422242,-0.10856887698174,-0.35890272259712,-116.59762573242188,0.01881588622928,-0.03544899821281,9.51113796234131,-0.64350640773773,3.53920841217041,0.27457180619240
193,1928430575,-0.10892742127180,-0.35955083370209,-116.59729766845703,0.01443612296134,-0.04201693460345,9.50995635986328,-0.66499680280685,3.45158267021179,0.33830004930496
194,1928438908,-0.10876271873713,-0.35953271389008,-116.59708404541016,0.03238343074918,-0.04559193924069,9.53939247131348,-0.60580223798752,3.54215407371521,0.31719386577606
195,1928447241,-0.10829649120569,-0.35887783765793,-116.59822845458984,0.01529747247696,-0.05384170636535,9.51802539825439,-0.56771385669708,3.60869979858398,0.17500926554203
196,1928455574,-0.10844048112631,-0.35865592956543,-116.59784698486328,0.02236795984209,-0.06518957763910,9.48580265045166,-0.64258438348770,3.56625747680664,0.33812072873116
197,1928463907,-0.10833034664392,-0.35907837748528,-116.59767150878906,0.00877177342772,-0.01546924933791,9.47846221923828,-0.60923457145691,3.47883558273315,0.30920222401619
198,1928472240,-0.10818790644407,-0.35912498831749,-116.59753417968750,0.02134518697858,-0.00438539683819,9.49503803253174,-0.60767209529877,3.53403425216675,0.30892047286034
199,1928480573,-0.10794659703970,-0.35917258262634,-116.59814453125000,0.01997615396976,-0.03556596115232,9.46847915649414,-0.59396851062775,3.52545380592346,0.21652995049953
200,1928488906,-0.10786730796099,-0.35876938700676,-116.59829711914062,0.03163904324174,-0.03093812428415,9.48717975616455,-0.61571490764618,3.58820843696594,0.27485352754593
201,1928497239,-0.10826791077852,-0.35919451713562,-116.59824371337891,0.03012339398265,-0.02513354271650,9.49651336669922,-0.67009395360947,3.47855401039124,0.29654878377914
202,1928505572,-0.10776373744011,-0.35984361171722,-116.59746551513672,0.01822505518794,-0.01772036775947,9.47919368743896,-0.56538301706314,3.46164846420288,0.38545581698418
203,1928513905,-0.10768916457891,-0.36024600267410,-116.59732818603516,0.03480853885412,-0.04424773156643,9.49013328552246,-0.61325603723526,3.48121809959412,0.32290586829185
204,1928522238,-0.10842910408974,-0.35995998978615,-116.59696960449219,0.01041096728295,-0.04433532804251,9.53098678588867,-0.71438097953796,3.57424879074097,0.33445784449577
205,1928530571,-0.10857940465212,-0.36026787757874,-116.59713745117188,0.01803238317370,-0.03992564976215,9.47432231903076,-0.63976675271988,3.49305176734924,0.27802973985672
206,1928538904,-0.10828371345997,-0.35968545079231,-116.59641265869141,0.02093651890755,-0.04187020286918,9.50604724884033,-0.59022885560989,3.60928893089294,0.37751540541649
207,1928547237,-0.10863760858774,-0.35989248752594,-116.59646606445312,0.01093845255673,-0.02229153551161,9.49676609039307,-0.66466379165649,3.50642251968384,0.28484311699867
208,1928555570,-0.10851700603962,-0.36003246903419,-116.59603118896484,0.02875206060708,-0.04362951219082,9.49736976623535,-0.61061781644821,3.52261066436768,0.34339728951454
209,1928563903,-0.10821744054556,-0.35941272974014,-116.59589385986328,0.02454420737922,-0.00953943189234,9.51262855529785,-0.58615612983704,3.60360264778137,0.31032925844193
210,1928572236,-0.10776695609093,-0.35962641239166,-116.59523773193359,0.02516545169055,-0.03900175541639,9.50171184539795,-0.57117187976837,3.51395297050476,0.37159854173660
211,1928580569,-0.10850625485182,-0.35975712537766,-116.59542846679688,0.02683799155056,-0.01706628501415,9.49803638458252,-0.71107679605484,3.51364564895630,0.27085775136948
212,1928588902,-0.10868652909994,-0.35933715105057,-116.59591674804688,0.02299751155078,-0.02253808826208,9.51169109344482,-0.64844995737076,3.59038543701172,0.23253883421421
213,1928597235,-0.10786598920822,-0.35917565226555,-116.59580993652344,0.01858704164624,-0.02480607852340,9.50748348236084,-0.52270966768265,3.54845523834229,0.30287551879883
214,1928605568,-0.10757662355900,-0.35929808020592,-116.59624481201172,0.01953838206828,-0.00762673234567,9.51256275177002,-0.59112536907196,3.52517199516296,0.23871187865734
215,1928613901,-0.10780163109303,-0.35874548554420,-116.59619140625000,0.02081384882331,-0.02315164357424,9.50331401824951,-0.65039652585983,3.59568786621094,0.31773176789284
216,1928622234,-0.10735408961773,-0.35817953944206,-116.59616851806641,0.01525206677616,-0.02046651020646,9.50601673126221,-0.57048022747040,3.60785460472107,0.29603651165962
217,1928630567,-0.10738217085600,-0.35772249102592,-116.59632873535156,0.03405058011413,-0.03606069833040,9.51687812805176,-0.62734377384186,3.58431506156921,0.27907988429070
218,1928638900,-0.10711646080017,-0.35716518759727,-116.59548187255859,0.02157476358116,-0.02715111710131,9.50371456146240,-0.59281581640244,3.60644578933716,0.39342182874680
219,1928647233,-0.10692257434130,-0.35664126276970,-116.59587860107422,0.01350024435669,-0.02912630699575,9.50206851959229,-0.59921938180923,3.59253740310669,0.24624243378639
220,1928655566,-0.10714676231146,-0.35637336969376,-116.59612274169922,0.00843929685652,-0.02494455501437,9.45807552337646,-0.65247142314911,3.57199501991272,0.26314786076546
221,1928663899,-0.10687875747681,-0.35587430000305,-116.59571838378906,0.01600310020149,-0.03719562664628,9.49568080902100,-0.58979332447052,3.58979630470276,0.34052842855453
222,1928672232,-0.10690528154373,-0.35694134235382,-116.59656524658203,0.00476604513824,-0.02102747373283,9.49933338165283,-0.62908560037613,3.41167545318604,0.19027535617352
223,1928680565,-0.10719944536686,-0.35767230391502,-116.59661865234375,0.02753493189812,-0.01130130328238,9.51013278961182,-0.65682590007782,3.44243812561035,0.28384414315224
224,1928688898,-0.10682617127895,-0.35776525735855,-116.59604644775391,0.01929221488535,-0.02997261285782,9.54520130157471,-0.58139199018478,3.52824592590332,0.36130163073540
225,1928697231,-0.11025293171406,-0.34561967849731,-116.61906433105469,0.01103246491402,-0.03245909139514,9.49183082580566,-0.66456133127213,3.52509522438049,0.24865020811558
226,1928705564,-0.11085834354162,-0.34586533904076,-116.61898040771484,0.01901301369071,-0.02576369419694,9.48715496063232,-0.69809043407440,3.51026487350464,0.30136430263519
227,1928713897,-0.11047165095806,-0.34596464037895,-116.61873626708984,0.01333417184651,-0.03337467834353,9.49331760406494,-0.57591050863266,3.51764154434204,0.32349500060081
228,1928722230,-0.11053789407015,-0.34604972600937,-116.61892700195312,0.02152430824935,-0.01843489333987,9.48670578002930,-0.63297897577286,3.52883505821228,0.27126759290695
229,1928730563,-0.11037279665470,-0.34599176049232,-116.61853027343750,0.03386624157429,-0.02466716244817,9.49513339996338,-0.60242122411728,3.53577637672424,0.34736749529839
230,1928738896,-0.11060851067305,-0.34539246559143,-116.61836242675781,0.03920418024063,-0.01612664014101,9.50623798370361,-0.65308612585068,3.61067199707031,0.31242960691452
231,1928747229,-0.11121413856745,-0.34518763422966,-116.61782073974609,0.02372784726322,-0.03198878094554,9.48742103576660,-0.69591313600540,3.55421829223633,0.36437532305717
232,1928755562,-0.11180804669857,-0.34577947854996,-116.61780548095703,0.02639218047261,-0.05129380896688,9.48204803466797,-0.69588756561279,3.46766829490662,0.29585722088814
233,1928763895,-0.11140595376492,-0.34477546811104,-116.61740875244141,0.01880211383104,-0.02606048807502,9.48950195312500,-0.57365632057190,3.64924716949463,0.34355092048645
234,1928772228,-0.11161760985851,-0.34543550014496,-116.61751556396484,0.00256059458479,-0.02818121761084,9.49860191345215,-0.65152370929718,3.45931792259216,0.28105223178864
235,1928780561,-0.11234547197819,-0.34457257390022,-116.61779022216797,0.01378921326250,-0.03230113536119,9.46782112121582,-0.70879709720612,3.63398075103760,0.26583731174469
236,1928788894,-0.11255992949009,-0.34421858191490,-116.61720275878906,0.02654973417521,-0.02572860568762,9.49433994293213,-0.65042215585709,3.58126664161682,0.36609140038490
237,1928797227,-0.11326162517071,-0.34418788552284,-116.61688995361328,0.03337668254972,-0.01039912179112,9.50180816650391,-0.70656859874725,3.53316330909729,0.33668631315231
238,1928805560,-0.11321185529232,-0.34459921717644,-116.61624908447266,0.02025565505028,-0.02249769307673,9.52829074859619,-0.61871182918549,3.48923516273499,0.37116304039955
239,1928813893,-0.11308083683252,-0.34514838457108,-116.61665344238281,0.02056542225182,-0.02043763734400,9.51693248748779,-0.60690379142761,3.46351885795593,0.26161101460457
240,1928822226,-0.11312712728977,-0.34445133805275,-116.61649322509766,0.01808842830360,-0.02237830311060,9.51767063140869,-0.63090413808823,3.62227511405945,0.31504225730896
241,1928830559,-0.11294950544834,-0.34407797455788,-116.61661529541016,0.01805961504579,-0.01927381195128,9.48997211456299,-0.60183209180832,3.57365989685059,0.28153887391090
242,1928838892,-0.11245811730623,-0.34393101930618,-116.61732482910156,0.03186140581965,-0.02307783626020,9.50192165374756,-0.56566476821899,3.55675411224365,0.20802600681782
243,1928847225,-0.11275092512369,-0.34415724873543,-116.61743927001953,0.01692504063249,-0.03645858913660,9.50860404968262,-0.65723562240601,3.50286173820496,0.27457180619240
244,1928855558,-0.11253108829260,-0.34419202804565,-116.61754608154297,0.02431737817824,-0.04681867733598,9.48902225494385,-0.59947550296783,3.53475141525269,0.28028374910355
245,1928863891,-0.11155876517296,-0.34396794438362,-116.61763763427734,0.02240495011210,-0.03001690469682,9.51146030426025,-0.50559943914413,3.55606293678284,0.28018128871918
246,1928872224,-0.11168448626995,-0.34351879358292,-116.61742401123047,0.01928802020848,-0.04297431185842,9.49673938751221,-0.64068871736526,3.59281873703003,0.31929421424866
247,1928880557,-0.11131494492292,-0.34352096915245,-116.61675262451172,0.01400959398597,-0.02817993052304,9.49856185913086,-0.57724243402481,3.52740073204041,0.37223887443542
248,1928888890,-0.11105223745108,-0.34301039576530,-116.61730957031250,0.01158566586673,-0.03221260383725,9.53199481964111,-0.59289264678955,3.60057997703552,0.22785143554211
249,1928897223,-0.11127181351185,-0.34278523921967,-116.61613464355469,0.04259390383959,-0.02752150408924,9.52311611175537,-0.64901345968246,3.55570387840271,0.41890799999237
250,1928905556,-0.11173040419817,-0.34235852956772,-116.61616516113281,0.03213363513350,-0.01282018888742,9.52253627777100,-0.68028849363327,3.59030866622925,0.29157963395119
251,1928913889,-0.11080517619848,-0.34165215492249,-116.61575317382812,0.03175088763237,-0.02440786361694,9.47423171997070,-0.51054292917252,3.61392521858215,0.33942702412605
252,1928922222,-0.11082807183266,-0.34146016836166,-116.61606597900391,0.01131006982177,-0.02713238075376,9.52670860290527,-0.62875270843506,3.56185173988342,0.25676992535591
253,1928930555,-0.11098429560661,-0.34171304106712,-116.61606597900391,0.00888462550938,-0.01332389004529,9.50058650970459,-0.64061206579208,3.49894309043884,0.30543699860573
254,1928938888,-0.11118892580271,-0.34148725867271,-116.61665344238281,0.02444941923022,-0.03041874431074,9.48304367065430,-0.65090900659561,3.56579637527466,0.22395808994770
255,1928947221,-0.11116745322943,-0.34118112921715,-116.61632537841797,0.02169008553028,-0.01523668132722,9.52347850799561,-0.61860942840576,3.56653904914856,0.33115363121033
256,1928955554,-0.11157003045082,-0.34117624163628,-116.61630249023438,0.03256244957447,-0.03324772045016,9.49115467071533,-0.67421787977219,3.53905510902405,0.29844430088997
257,1928963887,-0.11217409372330,-0.34110090136528,-116.61679077148438,0.03278490900993,-0.01593711040914,9.51697158813477,-0.69470930099487,3.53902912139893,0.23269250988960
258,1928972220,-0.11231347173452,-0.34060153365135,-116.61692810058594,0.01604961976409,-0.03570638969541,9.48786258697510,-0.64138042926788,3.59906864166260,0.27790164947510
259,1928980553,-0.11273476481438,-0.34052458405495,-116.61627197265625,0.02299124747515,-0.03623486682773,9.46653556823730,-0.67362886667252,3.53823542594910,0.38035860657692
260,1928988886,-0.11294479668140,-0.34115707874298,-116.61600494384766,0.02814582735300,-0.02920349501073,9.52944469451904,-0.65008920431137,3.46269869804382,0.32846409082413
261,1928997219,-0.11303540319204,-0.34104916453362,-116.61597442626953,0.00788543839008,-0.04815236851573,9.52579784393311,-0.63226187229156,3.54320454597473,0.30420750379562
262,1929005552,-0.11351714283228,-0.34062802791595,-116.61582183837891,-0.00506303785369,-0.04306998103857,9.50483798980713,-0.68387448787689,3.58923292160034,0.31081590056419
263,1929013885,-0.11399236321449,-0.33973556756973,-116.61495208740234,0.01976057887077,-0.04997964948416,9.51104640960693,-0.67716348171234,3.63582539558411,0.40894404053688
264,1929022218,-0.11353918164968,-0.33968713879585,-116.61463165283203,0.02051838487387,-0.05466959625483,9.51491451263428,-0.57224768400192,3.54415225982666,0.33243435621262
265,1929030551,-0.11339681595564,-0.33981186151505,-116.61404418945312,0.03753601014614,-0.04779661819339,9.47526264190674,-0.60385560989380,3.51379942893982,0.35822793841362
266,1929038884,-0.11408902704716,-0.33890461921692,-116.61418151855469,0.01496416982263,-0.04343567788601,9.49527072906494,-0.70802867412567,3.64804339408875,0.27767109870911
267,1929047217,-0.11414971202612,-0.33903929591179,-116.61441802978516,0.02538163959980,-0.02449585869908,9.50157642364502,-0.63049435615540,3.51287698745728,0.27733811736107
268,1929055550,-0.11397444456816,-0.33845058083534,-116.61495971679688,0.03803605586290,-0.01628725044429,9.50390529632568,-0.60441905260086,3.60936570167542,0.22938828170300
269,1929063883,-0.11387014389038,-0.33809000253677,-116.61531829833984,0.01504736021161,-0.01945812255144,9.48644638061523,-0.61059218645096,3.57271218299866,0.24672913551331
270,1929072216,-0.11484550684690,-0.33870169520378,-116.61566162109375,0.02525446936488,-0.01390443742275,9.48285770416260,-0.74181377887726,3.46566987037659,0.25418281555176
271,1929080549,-0.11530256271362,-0.33938768506050,-116.61590576171875,0.02236805483699,0.00349371321499,9.51776409149170,-0.67711234092712,3.44674134254456,0.27211287617683
272,1929088882,-0.11425091326237,-0.33981385827065,-116.61528778076172,0.01568802818656,-0.01312799192965,9.50438594818115,-0.49891412258148,3.48774981498718,0.36849921941757
273,1929097215,-0.11373887211084,-0.33990928530693,-116.61537170410156,0.02938798442483,-0.01875436119735,9.51403808593750,-0.56059312820435,3.51759004592896,0.28187182545662
274,1929105548,-0.11395066231489,-0.34037208557129,-116.61621856689453,0.02074173837900,-0.02241937071085,9.50315570831299,-0.65111392736435,3.48344659805298,0.19281117618084
275,1929113881,-0.11442808061838,-0.33995532989502,-116.61646270751953,0.01989183947444,-0.01782194152474,9.50439357757568,-0.68090319633484,3.57955074310303,0.27382895350456
276,1929122214,-0.11492630839348,-0.33972850441933,-116.61694335937500,0.02428434416652,-0.03384909033775,9.49033260345459,-0.68446362018585,3.56638550758362,0.23553568124771
277,1929130547,-0.11528869718313,-0.34034472703934,-116.61634063720703,0.02192918956280,-0.04137941822410,9.51698970794678,-0.66502243280411,3.45532202720642,0.36742344498634
278,1929138880,-0.11459484696388,-0.34100231528282,-116.61541748046875,0.01822476834059,-0.04244732856750,9.46528816223145,-0.54135686159134,3.45970177650452,0.40692052245140
279,1929147213,-0.11450681835413,-0.34127557277679,-116.61540222167969,0.04038043320179,-0.03935907781124,9.48551368713379,-0.61248761415482,3.49635624885559,0.29731726646423
280,1929155546,-0.11452822387218,-0.34109595417976,-116.61602783203125,0.02972193807364,-0.03018645383418,9.50831604003906,-0.62788176536560,3.56077551841736,0.21896328032017
281,1929163879,-0.11451364308596,-0.34108591079712,-116.61590576171875,0.03453324362636,-0.03090983256698,9.50679969787598,-0.62086349725723,3.53001308441162,0.31826972961426
282,1929172212,-0.11402756720781,-0.34091752767563,-116.61554718017578,0.02079793438315,-0.03401978313923,9.48521518707275,-0.56743216514587,3.55900859832764,0.33684000372887
283,1929180545,-0.11410343647003,-0.34128546714783,-116.61499023437500,0.01681764051318,-0.01848442666233,9.51506614685059,-0.62946987152100,3.48539328575134,0.36552795767784
284,1929188878,-0.11429098248482,-0.34156283736229,-116.61489105224609,0.02990429848433,-0.01120846997947,9.47152900695801,-0.64768147468567,3.50550007820129,0.30551376938820
285,1929197211,-0.11495040357113,-0.34232372045517,-116.61575317382812,0.02094434201717,-0.03085126541555,9.52110099792480,-0.70277780294418,3.43736648559570,0.18433284759521
286,1929205544,-0.11529584974051,-0.34313124418259,-116.61676788330078,0.02557587623596,-0.02307459712029,9.50705718994141,-0.66602134704590,3.44220781326294,0.17165380716324
287,1929213877,-0.11480218172073,-0.34269735217094,-116.61626434326172,0.01817404665053,-0.03728251159191,9.51268291473389,-0.56261676549911,3.58057570457458,0.36839675903320
288,1929222210,-0.11527794599533,-0.34250745177269,-116.61612701416016,0.02590795233846,-0.01672499254346,9.50776481628418,-0.68282431364059,3.56131386756897,0.31255772709846
289,1929230543,-0.11524365842342,-0.34221586585045,-116.61661529541016,0.03343607485294,-0.05015802383423,9.50737667083740,-0.61850690841675,3.56413102149963,0.24580699205399
290,1929238876,-0.11475725471973,-0.34247684478760,-116.61675262451172,0.03643910586834,-0.01351709105074,9.50022125244141,-0.56761145591736,3.50747275352478,0.27813223004341
291,1929247209,-0.11505467444658,-0.34173780679703,-116.61709594726562,0.02576529420912,-0.03828715533018,9.49521636962891,-0.65751737356186,3.61758804321289,0.25026386976242
292,1929255542,-0.11515767127275,-0.34229663014412,-116.61728668212891,0.02010946534574,-0.03175503015518,9.49901485443115,-0.63835799694061,3.47140789031982,0.27121633291245
293,1929263875,-0.11513532698154,-0.34251329302788,-116.61717224121094,0.01155886612833,-0.03416797146201,9.49886226654053,-0.61901926994324,3.50414276123047,0.31260892748833
294,1929272208,-0.11541497707367,-0.34294563531876,-116.61718750000000,0.02685157023370,-0.02785833179951,9.51694107055664,-0.65859323740005,3.48710942268372,0.29081124067307
295,1929280541,-0.11496776342392,-0.34292647242546,-116.61706542968750,0.02687041461468,-0.02039427310228,9.51105499267578,-0.56966060400009,3.53075599670410,0.32856664061546
296,1929288874,-0.11531633883715,-0.34333658218384,-116.61638641357422,0.02057122625411,-0.02758882381022,9.54014301300049,-0.66504806280136,3.48967099189758,0.37538945674896
297,1929297207,-0.11579316854477,-0.34357973933220,-116.61552429199219,0.02850089222193,-0.02117687836289,9.50641918182373,-0.67911016941071,3.49889159202576,0.39659801125526
298,1929305540,-0.11587377637625,-0.34311446547508,-116.61518096923828,0.01900663040578,-0.01671953685582,9.48454570770264,-0.63546347618103,3.59453511238098,0.33553364872932
299,1929313873,-0.11686680465937,-0.34346184134483,-116.61537170410156,0.03160775452852,-0.04317541420460,9.50119113922119,-0.74025148153305,3.48782658576965,0.27085775136948
300,1929322206,-0.11765851825476,-0.34327515959740,-116.61540222167969,0.03213708847761,-0.03840539604425,9.50745773315430,-0.72160428762436,3.56105732917786,0.29168209433556
301,1929330539,-0.11746241897345,-0.34312772750854,-116.61545562744141,0.02971744537354,-0.01948624663055,9.52451038360596,-0.59891206026077,3.54766154289246,0.28030937910080
302,1929338872,-0.11736264824867,-0.34296056628227,-116.61573791503906,0.01095678005368,-0.03170696645975,9.48730373382568,-0.61210340261459,3.55923914909363,0.26212328672409
303,1929347205,-0.11780368536711,-0.34329110383987,-116.61639404296875,0.01153264660388,-0.01346240006387,9.50354099273682,-0.67629265785217,3.48913311958313,0.22124296426773
304,1929355538,-0.11768499761820,-0.34249338507652,-116.61614990234375,0.01205887738615,-0.03967442736030,9.49941349029541,-0.61161667108536,3.63462114334106,0.32462200522423
305,1929363871,-0.11747872084379,-0.34360691905022,-116.61613464355469,0.01602822542191,-0.02377784065902,9.48110294342041,-0.59742653369904,3.39589715003967,0.29216879606247
306,1929372204,-0.11720075458288,-0.34395766258240,-116.61576843261719,0.02626613713801,-0.04304465651512,9.49412250518799,-0.59214991331100,3.49676609039307,0.33737790584564
307,1929380537,-0.11695599555969,-0.34356260299683,-116.61580657958984,0.02376277185977,-0.02641434967518,9.51676177978516,-0.59191942214966,3.57673358917236,0.29729163646698
308,1929388870,-0.11671987921000,-0.34317162632942,-116.61653137207031,0.02958164736629,-0.03339683264494,9.49524593353271,-0.59686297178268,3.58582663536072,0.20851270854473
309,1929397203,-0.11762519925833,-0.34344598650932,-116.61699676513672,0.02910332754254,-0.02710278704762,9.47207164764404,-0.73213171958923,3.49551081657410,0.23694449663162
310,1929405536,-0.11823748797178,-0.34280702471733,-116.61705017089844,0.01985403150320,-0.01330897118896,9.49271297454834,-0.69744998216629,3.61582064628601,0.28812170028687
311,1929413869,-0.11837813258171,-0.34215006232262,-116.61573028564453,-0.00078905338887,-0.03283918648958,9.49674987792969,-0.63912642002106,3.60654830932617,0.45082333683968
312,1929422202,-0.11854770034552,-0.34212517738342,-116.61638641357422,0.03254299610853,-0.02578053437173,9.52871608734131,-0.64550435543060,3.54228258132935,0.21407099068165
313,1929430535,-0.11868017911911,-0.34152826666832,-116.61611175537109,0.02927173674107,-0.02580589056015,9.52555370330811,-0.63840907812119,3.60083556175232,0.32423776388168
314,1929438868,-0.11877540498972,-0.34157264232635,-116.61589050292969,0.02335453405976,-0.03312036395073,9.49387168884277,-0.63694924116135,3.53359937667847,0.32042127847672
315,1929447201,-0.11813355237246,-0.34152975678444,-116.61544036865234,0.02177725359797,-0.03174415975809,9.51302051544189,-0.54379022121429,3.53490543365479,0.35333558917046
316,1929455534,-0.11760471016169,-0.34163033962250,-116.61502838134766,0.01413055043668,-0.03304312005639,9.50305366516113,-0.56202751398087,3.52678561210632,0.34237262606621
317,1929463867,-0.11804853379726,-0.34150543808937,-116.61444091796875,0.01787927746773,-0.02612897753716,9.49892711639404,-0.67554986476898,3.54412674903870,0.36793568730354
318,1929472200,-0.11774916946888,-0.34048509597778,-116.61389923095703,0.03596694767475,-0.04021719843149,9.54715061187744,-0.58915299177170,3.66110658645630,0.36140406131744
319,1929480533,-0.11796406656504,-0.34026604890823,-116.61357116699219,0.03601753711700,-0.04181205853820,9.49469661712646,-0.64747667312622,3.55665206909180,0.34283375740051
320,1929488866,-0.11791403591633,-0.34032511711121,-116.61279296875000,0.02503482624888,-0.03215835988522,9.50923633575439,-0.61822521686554,3.53162693977356,0.38809412717819
321,1929497199,-0.11846791207790,-0.34069022536278,-116.61305236816406,0.02473789826035,0.00343934353441,9.49392414093018,-0.68997073173523,3.48521399497986,0.27920797467232
322,1929505532,-0.11817324161530,-0.34104374051094,-116.61235046386719,0.03161971643567,-0.02465946786106,9.49893188476562,-0.58846145868301,3.49620246887207,0.37905225157738
323,1929513865,-0.11797524243593,-0.34159806370735,-116.61244964599609,0.01627381518483,-0.03468080982566,9.51437759399414,-0.59824609756470,3.46182799339294,0.28881332278252
324,1929522198,-0.11828153580427,-0.34143200516701,-116.61284637451172,0.03956760093570,-0.04084920883179,9.49767971038818,-0.66328066587448,3.55870127677917,0.24816353619099
325,1929530531,-0.11911022663116,-0.34160622954369,-116.61196136474609,0.02654569782317,-0.04474435746670,9.49062442779541,-0.72142499685287,3.50793385505676,0.40840616822243
326,1929538864,-0.11905485391617,-0.34131601452827,-116.61168670654297,0.04621792957187,-0.04205049201846,9.49995136260986,-0.61758488416672,3.57363414764404,0.32679927349091
327,1929547197,-0.11880256235600,-0.34216707944870,-116.61148071289062,0.00309634394944,-0.03516211733222,9.50579833984375,-0.59158641099930,3.42768430709839,0.31978094577789
328,1929555530,-0.11834108829498,-0.34155079722404,-116.61116790771484,0.02954933606088,-0.02314035408199,9.50615692138672,-0.56981426477432,3.61238813400269,0.33345890045166
329,1929563863,-0.11911307275295,-0.34193071722984,-116.61168670654297,0.02263942174613,-0.02913649752736,9.51229763031006,-0.71535438299179,3.48367714881897,0.24291260540485
330,1929572196,-0.11892335861921,-0.34163939952850,-116.61109924316406,0.03451139852405,-0.04576719924808,9.49122810363770,-0.60188329219818,3.57330083847046,0.36483633518219
331,1929580529,-0.11894862353802,-0.34174275398254,-116.61101531982422,0.02201651409268,-0.03272430598736,9.50593852996826,-0.62532037496567,3.51835870742798,0.30869001150131
332,1929588862,-0.11977661401033,-0.34105420112610,-116.61082458496094,0.01511385664344,-0.03612519800663,9.49993610382080,-0.72481882572174,3.62136602401733,0.31677126884460
333,1929597195,-0.11893081665039,-0.34021884202957,-116.61116790771484,0.03053600154817,-0.02556441910565,9.48182964324951,-0.52160829305649,3.62878131866455,0.26189273595810
334,1929605528,-0.11867976933718,-0.34119066596031,-116.61135864257812,0.02126514911652,-0.01545984856784,9.50383663177490,-0.59425020217896,3.42258667945862,0.27259948849678
335,1929613861,-0.11823740601540,-0.34105548262596,-116.61187744140625,0.03192524984479,-0.02099316567183,9.48929691314697,-0.57024973630905,3.54561233520508,0.23673956096172
336,1929622194,-0.11815505474806,-0.34072118997574,-116.61165618896484,0.02811441384256,-0.02425258606672,9.54011726379395,-0.61443424224854,3.57896184921265,0.32103598117828
337,1929630527,-0.11865174025297,-0.34080725908279,-116.61186218261719,0.02190257981420,-0.02981724776328,9.50852012634277,-0.68208152055740,3.51907587051392,0.26020225882530
338,1929638860,-0.11966666579247,-0.34180808067322,-116.61203765869141,0.01584585569799,-0.02213809080422,9.48691844940186,-0.74775636196136,3.41902661323547,0.27236896753311
339,1929647193,-0.12039013952017,-0.34121611714363,-116.61158752441406,0.00204232032411,-0.01188602019101,9.50216484069824,-0.70807993412018,3.60022139549255,0.35799735784531
340,1929655526,-0.11987386643887,-0.34097346663475,-116.61130523681641,0.02476141788065,-0.01508289761841,9.49903774261475,-0.56310331821442,3.56810116767883,0.32946306467056
341,1929663859,-0.12017478048801,-0.34127748012543,-116.61108398437500,0.01304948236793,-0.04816340282559,9.52926826477051,-0.65795284509659,3.49212932586670,0.32426336407661
342,1929672192,-0.12023872137070,-0.34186872839928,-116.61049652099609,0.00409291358665,-0.02162247337401,9.50481986999512,-0.63318389654160,3.46789884567261,0.36478513479233
343,1929680525,-0.12000118196011,-0.34149083495140,-116.61127471923828,0.00906836614013,-0.02339888736606,9.52242374420166,-0.59442949295044,3.57417178153992,0.20208349823952
344,1929688858,-0.12038592994213,-0.34135401248932,-116.61071777343750,0.02554941549897,-0.00480168731883,9.50916671752930,-0.66986358165741,3.55521774291992,0.36176267266273
345,1929697191,-0.12082499265671,-0.34070047736168,-116.61032104492188,0.02922568097711,-0.02753991819918,9.50136280059814,-0.67547291517258,3.60741877555847,0.34511333703995
346,1929705524,-0.12147610634565,-0.34093809127808,-116.61082458496094,0.02741860970855,-0.03073213435709,9.49397373199463,-0.70326441526413,3.51054620742798,0.23297426104546
347,1929713857,-0.12199798226357,-0.33989724516869,-116.61078643798828,0.03980888053775,-0.01830994524062,9.52367591857910,-0.68500143289566,3.65378069877625,0.31476050615311
348,1929722190,-0.12199211865664,-0.34013739228249,-116.61101531982422,0.02354772947729,-0.05574471876025,9.52706623077393,-0.62434703111649,3.51026487350464,0.26745104789734
349,1929730523,-0.12230922281742,-0.33929851651192,-116.61052703857422,0.01207405701280,-0.03073139861226,9.51142311096191,-0.66007876396179,3.62990832328796,0.36076369881630
350,1929738856,-0.12231505662203,-0.33943557739258,-116.61093139648438,0.01192636508495,-0.03954963386059,9.51188087463379,-0.62752318382263,3.52204728126526,0.24483367800713
351,1929747189,-0.12178567796946,-0.33935990929604,-116.61180877685547,0.01192351430655,-0.03887836635113,9.52126502990723,-0.55854403972626,3.53828668594360,0.19503961503506
352,1929755522,-0.12120695412159,-0.33949562907219,-116.61212158203125,0.02885859459639,-0.04993695020676,9.51086044311523,-0.55531662702560,3.52243137359619,0.25881904363632
353,1929763855,-0.12131335586309,-0.33929154276848,-116.61258697509766,0.01849788427353,-0.03903280198574,9.50899791717529,-0.63569402694702,3.55263018608093,0.24608875811100
354,1929772188,-0.12179577350616,-0.33933067321777,-116.61208343505859,0.03220738843083,-0.02993386611342,9.50244426727295,-0.68231207132339,3.53429079055786,0.35476997494698
355,1929780521,-0.12136628478765,-0.33963346481323,-116.61131286621094,0.00422078464180,-0.01584444195032,9.52627849578857,-0.57014721632004,3.49282097816467,0.38519963622093
356,1929788854,-0.12063110619783,-0.33986374735832,-116.61048126220703,0.02209552377462,-0.02093438617885,9.48597526550293,-0.53620845079422,3.51098203659058,0.39388293027878
357,1929797187,-0.12069772928953,-0.33946102857590,-116.60984039306641,0.01705162599683,-0.01445272006094,9.49638366699219,-0.63075053691864,3.57791137695312,0.36296650767326
358,1929805520,-0.12038171291351,-0.34007617831230,-116.61046600341797,0.01116010267287,-0.03459632396698,9.51627922058105,-0.58797478675842,3.46520924568176,0.21983419358730
359,1929813853,-0.11997842043638,-0.33972570300102,-116.61030578613281,0.01743700727820,-0.02664749883115,9.51173114776611,-0.57368206977844,3.57171320915222,0.32216307520866
360,1929822186,-0.11989591270685,-0.33996587991714,-116.60985565185547,0.01346574071795,-0.05054361000657,9.50595855712891,-0.61397325992584,3.51018786430359,0.34772607684135
361,1929830519,-0.12006801366806,-0.33965668082237,-116.60897827148438,0.03058551624417,-0.03370394557714,9.52898693084717,-0.64358323812485,3.56610321998596,0.40471768379211
362,1929838852,-0.12059598416090,-0.33924537897110,-116.60942840576172,0.03711862862110,-0.01297552976757,9.50902652740479,-0.68843370676041,3.58815670013428,0.24165746569633
363,1929847185,-0.12124641239643,-0.33936470746994,-116.60941314697266,0.02272829227149,-0.03645780310035,9.48711967468262,-0.70085674524307,3.51513123512268,0.29959693551064
364,1929855518,-0.12169109284878,-0.33972263336182,-116.60990905761719,0.03658593073487,-0.02690232917666,9.50865268707275,-0.67793202400208,3.49615120887756,0.23507465422153
365,1929863851,-0.12162616848946,-0.33951234817505,-116.60854339599609,0.02828408032656,-0.01672088168561,9.49698543548584,-0.61374264955521,3.55409026145935,0.45438373088837
366,1929872184,-0.12268504500389,-0.33932462334633,-116.60897827148438,0.01974261738360,-0.03430165722966,9.48401451110840,-0.75295603275299,3.56133890151978,0.24193927645683
367,1929880517,-0.12269970774651,-0.33966541290283,-116.60804748535156,0.02048048935831,-0.02683188021183,9.48086071014404,-0.62291264533997,3.48874878883362,0.41870307922363
368,1929888850,-0.12233402580023,-0.33899244666100,-116.60821533203125,0.00725930090994,-0.02307436428964,9.51612186431885,-0.58100771903992,3.61935520172119,0.27603179216385
369,1929897183,-0.12282026559114,-0.33872824907303,-116.60697174072266,0.01885093003511,-0.04023868590593,9.50347042083740,-0.68039089441299,3.56151819229126,0.45686826109886
370,1929905516,-0.12226572632790,-0.33922368288040,-116.60739135742188,0.01227916404605,-0.01738696731627,9.49203205108643,-0.55933809280396,3.47970700263977,0.24237470328808
371,1929913849,-0.12176328897476,-0.33943411707878,-116.60814666748047,0.01150027848780,-0.04142529517412,9.51353263854980,-0.56164336204529,3.50434780120850,0.22126857936382
372,1929922182,-0.12163402140141,-0.33960425853729,-116.60791778564453,0.01671717315912,-0.01929561048746,9.49528694152832,-0.60943961143494,3.51874303817749,0.32144588232040
373,1929930515,-0.12228883057833,-0.33917424082756,-116.60799407958984,0.00205291900784,-0.01405701786280,9.52810287475586,-0.70165073871613,3.58021688461304,0.28033497929573
374,1929938848,-0.12251584976912,-0.33890947699547,-116.60869598388672,0.03250421211123,-0.01605074666440,9.52352237701416,-0.65321427583694,3.57076549530029,0.21107412874699
375,1929947181,-0.12234456092119,-0.33864951133728,-116.60907745361328,0.03521893545985,-0.03160120174289,9.48501873016357,-0.60229313373566,3.56172370910645,0.25904959440231
376,1929955514,-0.12259481102228,-0.33822184801102,-116.60865020751953,0.02334055863321,-0.01816118881106,9.49806308746338,-0.65385454893112,3.59043669700623,0.34373021125793
377,1929963847,-0.12383300065994,-0.33801850676537,-116.60904693603516,0.02104629762471,-0.02540045045316,9.48705387115479,-0.77129578590393,3.55396223068237,0.26681068539619
378,1929972180,-0.12476368993521,-0.33781740069389,-116.60877227783203,0.02822891436517,-0.01385668199509,9.49288082122803,-0.73766434192657,3.56272220611572,0.32687604427338
379,1929980513,-0.12464415282011,-0.33811682462692,-116.60851287841797,0.01482188142836,-0.02409308403730,9.52868366241455,-0.60698062181473,3.49292373657227,0.33461156487465
380,1929988846,-0.12417551130056,-0.33825322985649,-116.60887145996094,0.02327112853527,-0.02172657102346,9.49601840972900,-0.56940454244614,3.52245712280273,0.25367057323456
381,1929997179,-0.12477432191372,-0.33877745270729,-116.60869598388672,0.02429724112153,-0.02927746251225,9.51891326904297,-0.69394087791443,3.46651506423950,0.32229110598564
382,1930005512,-0.12500484287739,-0.33933681249619,-116.60861206054688,0.03047863580287,-0.02357259765267,9.47734451293945,-0.65364974737167,3.47181773185730,0.30377206206322
383,1930013845,-0.12514975667000,-0.33924186229706,-116.60824584960938,0.01028673537076,-0.03928566724062,9.48838996887207,-0.64007407426834,3.54064273834229,0.33917087316513
384,1930022178,-0.12470719963312,-0.33953818678856,-116.60792541503906,0.02131623215973,-0.02782453596592,9.49201869964600,-0.57181221246719,3.50345134735107,0.33059012889862
385,1930030511,-0.12510475516319,-0.33978241682053,-116.60800933837891,0.00775908678770,-0.02100086584687,9.50439739227295,-0.66912066936493,3.50065946578979,0.28922313451767
386,1930038844,-0.12513254582882,-0.33999601006508,-116.60735321044922,0.00603833887726,-0.01996478065848,9.49158000946045,-0.62913686037064,3.51274919509888,0.37410873174667
387,1930047177,-0.12469156086445,-0.33998554944992,-116.60884094238281,0.02865709550679,-0.02660496160388,9.51597404479980,-0.56943011283875,3.53139638900757,0.12823766469955
388,1930055510,-0.12512210011482,-0.33955758810043,-116.60906219482422,0.01338359620422,-0.04179466515779,9.51913452148438,-0.67729151248932,3.59002637863159,0.26934647560120
389,1930063843,-0.12561216950417,-0.33952042460442,-116.60889434814453,0.01565471664071,-0.03056955896318,9.49421405792236,-0.68105691671371,3.53400897979736,0.33299788832664
390,1930072176,-0.12502950429916,-0.33913838863373,-116.60964965820312,0.01262035500258,-0.01670927740633,9.53171634674072,-0.55611068010330,3.58472537994385,0.20520846545696
391,1930080509,-0.12500199675560,-0.33923944830894,-116.61035919189453,0.01287868246436,-0.01646982133389,9.47453689575195,-0.61899363994598,3.51689887046814,0.20277510583401
392,1930088842,-0.12469159811735,-0.33922404050827,-116.60959625244141,0.01011099852622,-0.02683066762984,9.48381328582764,-0.58741128444672,3.54061746597290,0.38345795869827
393,1930097175,-0.12444600462914,-0.33815065026283,-116.60937500000000,0.02698739990592,-0.02753029949963,9.54129695892334,-0.59238034486771,3.65854477882385,0.32702970504761
394,1930105508,-0.12436099350452,-0.33774492144585,-116.60833740234375,0.01337014790624,-0.02509268000722,9.52450656890869,-0.61515146493912,3.58715820312500,0.41893362998962
395,1930113841,-0.12431332468987,-0.33785530924797,-116.60773468017578,0.03037093579769,-0.03517836332321,9.49320793151855,-0.61576616764069,3.51602745056152,0.37638834118843
396,1930122174,-0.12474277615547,-0.33758026361465,-116.60743713378906,0.02899328991771,-0.05418455600739,9.48792171478271,-0.67606204748154,3.57181477546692,0.33076938986778
397,1930130507,-0.12523385882378,-0.33734148740768,-116.60769653320312,0.02988066151738,-0.04326960071921,9.49669265747070,-0.68159484863281,3.55780458450317,0.26732298731804
398,1930138840,-0.12568528950214,-0.33765524625778,-116.60785675048828,0.01421376038343,-0.02883222140372,9.49715328216553,-0.68003237247467,3.50099229812622,0.27500724792480
399,1930147173,-0.12626209855080,-0.33663436770439,-116.60710906982422,0.00483282515779,-0.02255978249013,9.51385593414307,-0.69053411483765,3.65229511260986,0.37579923868179
400,1930155506,-0.12533846497536,-0.33717107772827,-116.60624694824219,0.01044702902436,-0.02524164319038,9.51942539215088,-0.51387280225754,3.47389245033264,0.39949247241020
401,1930163839,-0.12499259412289,-0.33740413188934,-116.60501861572266,0.02972963266075,-0.01966032385826,9.51099109649658,-0.58023929595947,3.50086379051208,0.43115159869194
402,1930172172,-0.12487130612135,-0.33771198987961,-116.60491180419922,0.03169774264097,-0.01912903040648,9.50007438659668,-0.61105316877365,3.50201654434204,0.30589798092842
403,1930180505,-0.12448688596487,-0.33773028850555,-116.60541534423828,0.00347434915602,-0.04730807244778,9.49866771697998,-0.57637155056000,3.52786159515381,0.23960837721825
404,1930188838,-0.12501969933510,-0.33753597736359,-116.60529327392578,0.01785715483129,-0.03392489627004,9.53086662292480,-0.68953526020050,3.56213355064392,0.30897173285484
405,1930197171,-0.12545184791088,-0.33682373166084,-116.60504913330078,-0.00481963530183,-0.03261524811387,9.49759292602539,-0.67324453592300,3.61471939086914,0.32638937234879
406,1930205504,-0.12543532252312,-0.33616992831230,-116.60510253906250,0.02057365514338,-0.02542204968631,9.50629615783691,-0.62319433689117,3.61766481399536,0.28819856047630
407,1930213837,-0.12606075406075,-0.33608451485634,-116.60388183593750,0.02188544720411,-0.03424506634474,9.51851367950439,-0.69691210985184,3.53941369056702,0.44698125123978
408,1930222170,-0.12558050453663,-0.33603578805923,-116.60299682617188,0.00667433254421,-0.02461612969637,9.50044250488281,-0.56814938783646,3.54392170906067,0.40059384703636
409,1930230503,-0.12532824277878,-0.33525973558426,-116.60291290283203,0.03636561706662,-0.01780040562153,9.51359653472900,-0.59125328063965,3.62230038642883,0.32492932677269
410,1930238836,-0.12546837329865,-0.33478668332100,-116.60340881347656,0.03239192068577,-0.00015239074128,9.50858211517334,-0.64222562313080,3.59548258781433,0.23548446595669
411,1930247169,-0.12547762691975,-0.33492186665535,-116.60374450683594,0.03936671838164,-0.00887044612318,9.48501491546631,-0.62447506189346,3.51331281661987,0.25779449939728
412,1930255502,-0.12511403858662,-0.33576616644859,-116.60374450683594,0.03135541081429,-0.02838105335832,9.51707839965820,-0.58036738634109,3.43741774559021,0.29411548376083
413,1930263835,-0.12518841028214,-0.33622956275940,-116.60347747802734,0.03021754696965,-0.02980439551175,9.51898002624512,-0.63054567575455,3.47389245033264,0.32938629388809
414,1930272168,-0.12445389479399,-0.33605039119720,-116.60330963134766,0.01278856024146,-0.02160054631531,9.51211738586426,-0.53723299503326,3.56051969528198,0.31558018922806
415,1930280501,-0.12486217170954,-0.33608350157738,-116.60367584228516,0.02447151578963,-0.02986607514322,9.47824382781982,-0.67206633090973,3.52624797821045,0.25676992535591
416,1930288834,-0.12592944502831,-0.33618232607841,-116.60366821289062,0.01513725146651,-0.02101885527372,9.48279857635498,-0.75305849313736,3.52701640129089,0.29598531126976
417,1930297167,-0.12660022079945,-0.33542540669441,-116.60393524169922,0.01698496192694,-0.02801085263491,9.50016689300537,-0.70280337333679,3.61927843093872,0.26537626981735
418,1930305500,-0.12603464722633,-0.33488979935646,-116.60313415527344,0.01204100809991,-0.01869136095047,9.49440002441406,-0.55726331472397,3.60268020629883,0.39280703663826
419,1930313833,-0.12588973343372,-0.33433619141579,-116.60292816162109,0.01524550281465,-0.02937709540129,9.48110198974609,-0.60462391376495,3.59553408622742,0.32618445158005
420,1930322166,-0.12615145742893,-0.33414122462273,-116.60289001464844,0.00534752663225,-0.01502168178558,9.49346160888672,-0.65674901008606,3.56210780143738,0.29969936609268
421,1930330499,-0.12632660567760,-0.33404189348221,-116.60225677490234,0.00876857060939,-0.03361535444856,9.52157783508301,-0.64299410581589,3.54110360145569,0.37994873523712
422,1930338832,-0.12603570520878,-0.33425137400627,-116.60254669189453,0.00368675077334,-0.01935098506510,9.49311065673828,-0.59056186676025,3.51341509819031,0.25907519459724
423,1930347165,-0.12620891630650,-0.33423414826393,-116.60249328613281,0.04008026048541,-0.01811182685196,9.51325225830078,-0.64319914579391,3.53101205825806,0.31424829363823
424,1930355498,-0.12516851723194,-0.33417448401451,-116.60224151611328,0.01897881180048,-0.03882646188140,9.50038623809814,-0.49973368644714,3.54604721069336,0.32556971907616
425,1930363831,-0.12557131052017,-0.33379280567169,-116.60269927978516,0.05432463809848,-0.02753186970949,9.50975894927979,-0.67040133476257,3.57504272460938,0.24716453254223
426,1930372164,-0.12520240247250,-0.33276337385178,-116.60289001464844,0.02901364862919,-0.03082804009318,9.51031112670898,-0.58146876096725,3.66238713264465,0.27249702811241
427,1930380497,-0.12484367936850,-0.33228290081024,-116.60216522216797,0.02264463901520,-0.04834797978401,9.51792716979980,-0.57757532596588,3.58621001243591,0.39285826683044
428,1930388830,-0.12534962594509,-0.33184078335762,-116.60173797607422,0.01529906131327,-0.03975192457438,9.50611591339111,-0.68679434061050,3.59164047241211,0.34554877877235
429,1930397163,-0.12561346590519,-0.33219608664513,-116.60204315185547,0.01462692674249,-0.01764717325568,9.47373485565186,-0.65439254045486,3.48705816268921,0.26655453443527
430,1930405496,-0.12588126957417,-0.33220133185387,-116.60218811035156,0.01870596967638,-0.01235258579254,9.50472259521484,-0.65682584047318,3.53869652748108,0.27644163370132
431,1930413829,-0.12542350590229,-0.33117407560349,-116.60213470458984,-0.00007092300802,-0.04152911901474,9.52344417572021,-0.56658685207367,3.65221834182739,0.30505272746086
432,1930422162,-0.12488192319870,-0.33100631833076,-116.60256958007812,0.02460554614663,-0.03283814713359,9.49553871154785,-0.56174588203430,3.55913662910461,0.24101714789867
433,1930430495,-0.12485388666391,-0.33004641532898,-116.60228729248047,0.01530679129064,-0.04782865941525,9.46264076232910,-0.61771291494370,3.64496922492981,0.32910448312759
434,1930438828,-0.12538576126099,-0.33023107051849,-116.60239410400391,0.02410999685526,-0.03477810695767,9.49885845184326,-0.68935596942902,3.51677083969116,0.28192308545113
435,1930447161,-0.12560483813286,-0.33037698268890,-116.60159301757812,0.02629531174898,-0.01839483901858,9.48607730865479,-0.64824509620667,3.51172423362732,0.39454883337021
436,1930455494,-0.12461511045694,-0.32992473244667,-116.60161590576172,0.03048590198159,-0.05321466922760,9.48825168609619,-0.50672638416290,3.59292149543762,0.29252734780312
437,1930463827,-0.12438931316137,-0.32901293039322,-116.60150909423828,0.01914522424340,-0.02334248274565,9.49760627746582,-0.59527468681335,3.63869357109070,0.30310598015785
438,1930472160,-0.12426895648241,-0.32925602793694,-116.60179138183594,0.03385550901294,-0.02266929671168,9.51195812225342,-0.61105328798294,3.50993156433105,0.26166221499443
439,1930480493,-0.12483459711075,-0.32882702350616,-116.60123443603516,0.04012193903327,-0.02502806112170,9.51368236541748,-0.68876671791077,3.58003759384155,0.36793565750122
440,1930488826,-0.12499238550663,-0.32873040437698,-116.60092163085938,0.02562449127436,-0.01764318719506,9.50607109069824,-0.64496642351151,3.55004358291626,0.33310034871101
441,1930497159,-0.12517997622490,-0.32879906892776,-116.60138702392578,0.01826502941549,-0.03444462269545,9.48474216461182,-0.64494091272354,3.52015161514282,0.24017189443111
442,1930505492,-0.12454190105200,-0.32877600193024,-116.60165405273438,0.01771347783506,-0.02815522626042,9.49812030792236,-0.54801660776138,3.54179573059082,0.26307100057602
443,1930513825,-0.12492993474007,-0.32855403423309,-116.60202789306641,0.03184059634805,-0.03362226858735,9.51028251647949,-0.66988915205002,3.55583238601685,0.25935694575310
444,1930522158,-0.12473062425852,-0.32907828688622,-116.60216522216797,0.01853825151920,-0.01970118470490,9.50081729888916,-0.60119169950485,3.47614598274231,0.27836269140244
445,1930530491,-0.12477868795395,-0.33028408885002,-116.60224151611328,0.01139959506691,-0.02859868109226,9.48178100585938,-0.62788176536560,3.38352537155151,0.29270672798157
446,1930538824,-0.12374037504196,-0.33009460568428,-116.60277557373047,0.00860968697816,-0.03500534966588,9.49221611022949,-0.50027155876160,3.56192803382874,0.22938828170300
447,1930547157,-0.12394896149635,-0.32951375842094,-116.60284423828125,0.00261545227841,-0.00332924700342,9.50965595245361,-0.64798885583878,3.60019540786743,0.29132348299026
448,1930555490,-0.12435760349035,-0.32930466532707,-116.60328674316406,0.01118085253984,-0.00656389491633,9.50831317901611,-0.67480695247650,3.56392621994019,0.24024870991707
449,1930563823,-0.12416689097881,-0.32973814010620,-116.60249328613281,0.01450067199767,-0.02230140194297,9.51780414581299,-0.59855347871780,3.47635149955750,0.40909782052040
450,1930572156,-0.12429425120354,-0.32969087362289,-116.60237884521484,0.02458870783448,-0.00457396265119,9.50348663330078,-0.64071446657181,3.54438281059265,0.30769103765488
451,1930580489,-0.12442018091679,-0.32973045110703,-116.60269927978516,0.03772389516234,-0.01184701081365,9.54769515991211,-0.63863974809647,3.52506971359253,0.25425970554352
452,1930588822,-0.12438457459211,-0.32994848489761,-116.60285949707031,0.03155123069882,-0.03649370372295,9.53568935394287,-0.61971086263657,3.51272368431091,0.27459743618965
453,1930597155,-0.12386234849691,-0.32920351624489,-116.60254669189453,0.02238808013499,-0.04286768287420,9.48525333404541,-0.56031137704849,3.61961150169373,0.32820799946785
454,1930605488,-0.12418662011623,-0.32905238866806,-116.60244750976562,0.01670527085662,-0.02059148252010,9.49372100830078,-0.66348552703857,3.55716419219971,0.30454045534134
455,1930613821,-0.12431995570660,-0.32940772175789,-116.60237121582031,0.02990397252142,-0.04042906314135,9.50803470611572,-0.63974106311798,3.48539280891418,0.30610293149948
456,1930622154,-0.12509657442570,-0.32920461893082,-116.60182189941406,0.01305512338877,-0.04134213179350,9.53158760070801,-0.71799260377884,3.56331133842468,0.35976472496986
457,1930630487,-0.12578962743282,-0.32841408252716,-116.60180664062500,0.02800555154681,-0.05202413350344,9.53198432922363,-0.70498055219650,3.62399172782898,0.29511442780495
458,1930638820,-0.12467033416033,-0.32845684885979,-116.60310363769531,0.02712188847363,-0.04842496663332,9.51380729675293,-0.49117860198021,3.53408598899841,0.13925178349018
459,1930647153,-0.12459285557270,-0.32819089293480,-116.60361480712891,-0.00278424890712,-0.01853214204311,9.48324489593506,-0.61371713876724,3.56064796447754,0.22826126217842
460,1930655486,-0.12456705421209,-0.32758596539497,-116.60351562500000,0.01455610152334,-0.01190957240760,9.47460842132568,-0.62237465381622,3.61110734939575,0.30625659227371
461,1930663819,-0.12386753410101,-0.32742094993591,-116.60381317138672,0.02428977191448,-0.01951544918120,9.49706363677979,-0.53923082351685,3.54940271377563,0.25961306691170
462,1930672152,-0.12424007803202,-0.32680857181549,-116.60472869873047,0.02786424197257,-0.02077872492373,9.49544048309326,-0.67065751552582,3.61249041557312,0.18663811683655
463,1930680485,-0.12388349324465,-0.32646867632866,-116.60507202148438,0.01106872130185,-0.02238831296563,9.49249553680420,-0.57959896326065,3.56994581222534,0.24731826782227
464,1930688818,-0.12364379316568,-0.32785853743553,-116.60496520996094,0.03255930915475,-0.01727528497577,9.51482582092285,-0.59701663255692,3.37189674377441,0.30807524919510
465,1930697151,-0.10004406422377,-0.34125483036041,-116.61620330810547,0.03409572318196,-0.00434387894347,9.48275947570801,-0.58559262752533,3.53721046447754,0.27559632062912
466,1930705484,-0.10044398158789,-0.34156599640846,-116.61598968505859,0.02127294242382,-0.00779845658690,9.51477146148682,-0.67239928245544,3.50140166282654,0.31983208656311
467,1930713817,-0.09990821033716,-0.34175750613213,-116.61602783203125,0.02106457203627,-0.01062298193574,9.51264190673828,-0.56020897626877,3.50726771354675,0.29104176163673
468,1930722150,-0.09893144667149,-0.34149199724197,-116.61568450927734,0.02133334986866,-0.02108925953507,9.51071739196777,-0.50982570648193,3.57186651229858,0.33722418546677
469,1930730483,-0.09945884346962,-0.34049811959267,-116.61589050292969,0.01364435069263,-0.04019109904766,9.49480819702148,-0.68635892868042,3.64919590950012,0.27761986851692
470,1930738816,-0.09993823617697,-0.34036836028099,-116.61542510986328,0.00326466886327,-0.02964357472956,9.49934005737305,-0.68420749902725,3.55485916137695,0.35297700762749
471,1930747149,-0.10046643018723,-0.33967250585556,-116.61483001708984,0.00351179414429,-0.04108903557062,9.46841812133789,-0.68566751480103,3.61469364166260,0.36534863710403
472,1930755482,-0.09958764910698,-0.34030300378799,-116.61508941650391,0.01029596757144,-0.04225211217999,9.49780941009521,-0.52176207304001,3.46397972106934,0.26537632942200
473,1930763815,-0.09929008781910,-0.34035104513168,-116.61354064941406,0.03564164042473,-0.03872739151120,9.49985408782959,-0.58671969175339,3.52394270896912,0.49293315410614
474,1930772148,-0.09900476038456,-0.34065839648247,-116.61284637451172,0.05236810073256,-0.05153571441770,9.52523612976074,-0.59345626831055,3.50260591506958,0.37884736061096
475,1930780481,-0.09874533861876,-0.34038785099983,-116.61276245117188,0.02545817196369,-0.01954258978367,9.51898002624512,-0.59094607830048,3.56182599067688,0.31588757038116
476,1930788814,-0.09846865385771,-0.33987528085709,-116.61273956298828,0.03661683946848,-0.03135384619236,9.51239490509033,-0.59442955255508,3.60122036933899,0.29700985550880
477,1930797147,-0.09863327443600,-0.33934614062309,-116.61309051513672,0.03223896399140,-0.03706080466509,9.49139118194580,-0.64309650659561,3.59389495849609,0.26025342941284
478,1930805480,-0.09825107455254,-0.33981958031654,-116.61293792724609,0.01932458579540,-0.03422245383263,9.51647472381592,-0.58080279827118,3.48293423652649,0.31414580345154
479,1930813813,-0.09875649213791,-0.33894267678261,-116.61314392089844,0.01672950200737,-0.03203982859850,9.51201915740967,-0.68482214212418,3.63503146171570,0.26793771982193
480,1930822146,-0.09862637519836,-0.33946323394775,-116.61404418945312,0.04302788525820,-0.03236250579357,9.52063465118408,-0.61141180992126,3.47752952575684,0.18873851001263
481,1930830479,-0.09860071539879,-0.33897358179092,-116.61417388916016,0.01667394675314,-0.03322321549058,9.49830627441406,-0.62140125036240,3.58779811859131,0.27795284986496
482,1930838812,-0.09875130653381,-0.33905580639839,-116.61381530761719,0.02026859670877,-0.01416220609099,9.48282146453857,-0.64406991004944,3.53008961677551,0.33622524142265
483,1930847145,-0.09791513532400,-0.33982688188553,-116.61325836181641,0.04138101637363,-0.01149273570627,9.51346206665039,-0.52219748497009,3.43718719482422,0.36089181900024
484,1930855478,-0.09783284366131,-0.33988812565804,-116.61302185058594,0.02867732197046,-0.01904075406492,9.50202751159668,-0.61778974533081,3.53190875053406,0.32329007983208
485,1930863811,-0.09866257011890,-0.33954495191574,-116.61347198486328,0.03214346617460,-0.03976282104850,9.48806571960449,-0.72349965572357,3.57245564460754,0.23748239874840
486,1930872144,-0.09852939099073,-0.33945915102959,-116.61289978027344,0.02050785906613,-0.02214316278696,9.50048065185547,-0.60987490415573,3.55014562606812,0.36509248614311
487,1930880477,-0.09900072216988,-0.33927738666534,-116.61213684082031,0.02217542193830,-0.01415799371898,9.54507350921631,-0.68033975362778,3.55088877677917,0.38878571987152
488,1930888810,-0.09896607697010,-0.33942374587059,-116.61262512207031,0.01051815319806,-0.04381703212857,9.50123596191406,-0.62314301729202,3.52207255363464,0.23799465596676
489,1930897143,-0.09911204129457,-0.33894932270050,-116.61234283447266,0.04052068293095,-0.02669571153820,9.50612163543701,-0.64020216464996,3.58851575851440,0.31970405578613
490,1930905476,-0.09828428924084,-0.34014824032784,-116.61279296875000,0.01984240300953,-0.03814243525267,9.51328468322754,-0.52755087614059,3.39638376235962,0.24291260540485
491,1930913809,-0.09813939779997,-0.33953258395195,-116.61276245117188,0.02238465473056,-0.02443629689515,9.52201938629150,-0.60705733299255,3.60490894317627,0.29255294799805
492,1930922142,-0.09775885939598,-0.33979687094688,-116.61309051513672,0.02139069512486,-0.02868892438710,9.49905014038086,-0.58144319057465,3.50803613662720,0.25769200921059
493,1930930475,-0.09805892407894,-0.34054982662201,-116.61370849609375,0.01749183610082,-0.01394331548363,9.51543712615967,-0.65849071741104,3.43954324722290,0.22657071053982
494,1930938808,-0.09751842916012,-0.33984860777855,-116.61426544189453,0.01249948889017,-0.02138237096369,9.47756958007812,-0.56356430053711,3.62383747100830,0.22995179891586
495,1930947141,-0.09833440184593,-0.33908540010452,-116.61393737792969,0.03000211529434,-0.02128718048334,9.48536109924316,-0.71991366147995,3.62058472633362,0.32977041602135
496,1930955474,-0.09864797443151,-0.33931156992912,-116.61418151855469,0.01869536191225,-0.00337184523232,9.49372291564941,-0.66579085588455,3.51300549507141,0.26581174135208
497,1930963807,-0.09831653535366,-0.33900693058968,-116.61457824707031,0.01867610216141,-0.01244904194027,9.50105285644531,-0.58315926790237,3.56656432151794,0.24365539848804
498,1930972140,-0.09772823005915,-0.33968418836594,-116.61376190185547,0.02898322418332,-0.04242259636521,9.49543285369873,-0.55687910318375,3.45837020874023,0.39319133758545
499,1930980473,-0.09782996028662,-0.33942899107933,-116.61431884765625,0.01743211969733,-0.01735861785710,9.52337741851807,-0.63513052463531,3.56046819686890,0.22803072631359
500,1930988806,-0.09837260097265,-0.33888357877731,-116.61445617675781,0.02909975871444,-0.02265102602541,9.50352287292480,-0.69255763292313,3.60501098632812,0.27838826179504
501,1930997139,-0.09859104454517,-0.33908921480179,-116.61433410644531,0.02806612290442,-0.04580868780613,9.50623130798340,-0.64909034967422,3.50550055503845,0.31675845384598
502,1931005472,-0.09790962934494,-0.33927187323570,-116.61378479003906,0.01972422748804,-0.03345809131861,9.53927040100098,-0.54494279623032,3.51761555671692,0.36268472671509
503,1931013805,-0.09838183969259,-0.33945700526237,-116.61326599121094,0.00806237943470,-0.05262599512935,9.47797393798828,-0.67995554208755,3.50693488121033,0.34754678606987
504,1931022138,-0.09830598533154,-0.33984082937241,-116.61284637451172,0.02698680944741,-0.04342560470104,9.52082538604736,-0.61725187301636,3.49374341964722,0.34480604529381
505,1931030471,-0.09839820861816,-0.33989286422729,-116.61293029785156,0.01013918966055,-0.04346638545394,9.52683639526367,-0.63495129346848,3.52330231666565,0.27126759290695
506,1931038804,-0.09849604219198,-0.33949896693230,-116.61293792724609,0.01192692108452,-0.03497782722116,9.50696754455566,-0.63817864656448,3.58744001388550,0.29260417819023
507,1931047137,-0.09923825412989,-0.33976697921753,-116.61307525634766,0.01501643843949,-0.03360753506422,9.47919940948486,-0.71286982297897,3.49712467193604,0.26729738712311
508,1931055470,-0.09870603680611,-0.33960750699043,-116.61348724365234,0.01616633310914,-0.02862620726228,9.49375534057617,-0.56412798166275,3.55877804756165,0.24690842628479
509,1931063803,-0.09867354482412,-0.33890327811241,-116.61350250244141,0.02723628096282,-0.01278793625534,9.48653507232666,-0.61940342187881,3.61384844779968,0.30536010861397
510,1931072136,-0.09807004779577,-0.33894565701485,-116.61366271972656,0.02504958957434,-0.01223975513130,9.53595352172852,-0.55518859624863,3.53444457054138,0.27723568677902
511,1931080469,-0.09794822335243,-0.33898085355759,-116.61371612548828,0.00783735141158,-0.01436046045274,9.54335308074951,-0.60846620798111,3.52635049819946,0.28410032391548
512,1931088802,-0.09833239018917,-0.33928340673447,-116.61338043212891,0.00680529884994,-0.02263298444450,9.51667118072510,-0.67344957590103,3.50360488891602,0.33681443333626
513,1931097135,-0.09806069731712,-0.33998939394951,-116.61326599121094,0.00399205973372,-0.02992881834507,9.49813079833984,-0.58958858251572,3.44448733329773,0.29560109972954
514,1931105468,-0.09878003597260,-0.33968761563301,-116.61322784423828,0.02616180479527,-0.00679709296674,9.52041149139404,-0.71399670839310,3.57558012008667,0.29982736706734
515,1931113801,-0.09912823140621,-0.33973586559296,-116.61267852783203,0.03052377700806,-0.03131381422281,9.51043987274170,-0.66438210010529,3.52414751052856,0.36691114306450
516,1931122134,-0.09875787794590,-0.33931320905685,-116.61264038085938,0.00170168187469,-0.01849563606083,9.51925373077393,-0.58323609828949,3.59015488624573,0.29816249012947
517,1931130467,-0.09887997806072,-0.33993718028069,-116.61228179931641,0.02102086134255,-0.03062004782259,9.50243377685547,-0.63776892423630,3.45537328720093,0.32941189408302
518,1931138800,-0.09885550290346,-0.33908236026764,-116.61248779296875,0.01265798322856,-0.01961704343557,9.51711082458496,-0.62352728843689,3.64261293411255,0.27139562368393
519,1931147133,-0.09857196360826,-0.33816081285477,-116.61189270019531,0.03098877891898,-0.02982612699270,9.49122714996338,-0.58951157331467,3.63948822021484,0.35382220149040
520,1931155466,-0.09844809770584,-0.33785238862038,-116.61122131347656,0.04845974594355,-0.03415645286441,9.51388454437256,-0.61123245954514,3.57675886154175,0.37674698233604
521,1931163799,-0.09880793094635,-0.33755627274513,-116.61032867431641,0.03152552619576,-0.04728469252586,9.49790096282959,-0.66686660051346,3.56546306610107,0.39821168780327
522,1931172132,-0.09896479547024,-0.33764430880547,-116.60968780517578,0.02784586884081,-0.04637281969190,9.51732540130615,-0.64476156234741,3.52901434898376,0.37259745597839
523,1931180465,-0.09855144470930,-0.33763641119003,-116.60829925537109,0.00298407091759,-0.03697350621223,9.50059127807617,-0.57391256093979,3.53126811981201,0.45102822780609
524,1931188798,-0.09844011813402,-0.33725181221962,-116.60803985595703,0.03268667310476,-0.03817648068070,9.51857948303223,-0.61364018917084,3.58572387695312,0.32866907119751
525,1931197131,-0.09917788207531,-0.33775329589844,-116.60840606689453,0.01229627802968,-0.02719199657440,9.50758934020996,-0.71184527873993,3.46930766105652,0.24921369552612
526,1931205464,-0.09879025071859,-0.33833765983582,-116.60851287841797,0.03159472718835,-0.03834540769458,9.51582622528076,-0.57990628480911,3.46946072578430,0.28102657198906
527,1931213797,-0.09916111081839,-0.33812263607979,-116.60839080810547,0.01964066363871,-0.00351275131106,9.48567485809326,-0.66796809434891,3.55626773834229,0.30641028285027
528,1931222130,-0.10018882155418,-0.33836629986763,-116.60803985595703,0.02205757051706,-0.02686394192278,9.47472381591797,-0.75003600120544,3.51059722900391,0.33794140815735
529,1931230463,-0.10071423649788,-0.33824107050896,-116.60820007324219,0.02763574942946,-0.00076610420365,9.50107097625732,-0.68653833866119,3.54415225982666,0.27326548099518
530,1931238796,-0.10108883678913,-0.33860743045807,-116.60824584960938,0.03618136793375,-0.02317775040865,9.47861003875732,-0.67273235321045,3.49586939811707,0.29101613163948
531,1931247129,-0.10109026730061,-0.33789727091789,-116.60781860351562,0.02148044854403,-0.02881147898734,9.50003814697266,-0.62252837419510,3.61512899398804,0.34787967801094
532,1931255462,-0.10157109797001,-0.33822476863861,-116.60747528076172,0.02041905373335,-0.02452143467963,9.51104545593262,-0.68471974134445,3.50030088424683,0.33637896180153
533,1931263795,-0.10172139853239,-0.33836141228676,-116.60612487792969,0.01682544127107,-0.01734510622919,9.52110958099365,-0.63989484310150,3.51285171508789,0.46222174167633
534,1931272128,-0.10185878723860,-0.33765631914139,-116.60578155517578,0.01859982125461,-0.03840605169535,9.49447345733643,-0.64406991004944,3.62460637092590,0.33748033642769
535,1931280461,-0.10155109316111,-0.33781513571739,-116.60548400878906,0.00783012807369,-0.02208127640188,9.50269603729248,-0.58669412136078,3.50949621200562,0.33140981197357
536,1931288794,-0.10177467763424,-0.33800318837166,-116.60553741455078,0.00410183332860,-0.01279113441706,9.50876808166504,-0.65323984622955,3.51769232749939,0.28722518682480
537,1931297127,-0.10221932828426,-0.33860564231873,-116.60534667968750,0.02880193106830,-0.02971358411014,9.51906681060791,-0.67703545093536,3.45739698410034,0.32564657926559
538,1931305460,-0.10143794864416,-0.33737501502037,-116.60486602783203,0.01759448833764,-0.03309212625027,9.51623725891113,-0.53154653310776,3.68751454353333,0.35379660129547
539,1931313793,-0.10162384808064,-0.33689948916435,-116.60404968261719,0.01631340384483,-0.03054664842784,9.52208900451660,-0.64652889966965,3.58585190773010,0.39974853396416
540,1931322126,-0.10235136747360,-0.33710089325905,-116.60559082031250,0.03562524542212,-0.05087445303798,9.50975227355957,-0.71463710069656,3.51584815979004,0.10874523222446
541,1931330459,-0.10242767632008,-0.33744391798973,-116.60451507568359,0.03010361455381,-0.01487150136381,9.52053928375244,-0.63144207000732,3.48810815811157,0.43678674101830
542,1931338792,-0.10328818857670,-0.33739572763443,-116.60380554199219,0.03930869325995,-0.04106514528394,9.49951267242432,-0.72972404956818,3.54530501365662,0.38133195042610
543,1931347125,-0.10315029323101,-0.33717086911201,-116.60355377197266,0.01696250960231,-0.03073848970234,9.48219776153564,-0.60774898529053,3.55662631988525,0.32311075925827
544,1931355458,-0.10322257876396,-0.33713290095329,-116.60448455810547,0.01384812407196,-0.01873422041535,9.47367095947266,-0.63607829809189,3.54456162452698,0.18474265933037
545,1931363791,-0.10283653438091,-0.33608731627464,-116.60392761230469,0.01797159388661,-0.02953789010644,9.52896308898926,-0.57657629251480,3.65590667724609,0.37961569428444
546,1931372124,-0.10287500172853,-0.33652406930923,-116.60381317138672,0.03429834544659,-0.02658952586353,9.49677181243896,-0.63085311651230,3.48757028579712,0.30971455574036
547,1931380457,-0.10253674536943,-0.33681312203407,-116.60347747802734,0.02925751917064,-0.01206854544580,9.50815105438232,-0.58295440673828,3.49466562271118,0.33617407083511
548,1931388790,-0.10194785147905,-0.33701485395432,-116.60279083251953,0.01344504486769,-0.03530227765441,9.51441287994385,-0.55657172203064,3.51515698432922,0.37800207734108
549,1931397123,-0.10129014402628,-0.33692714571953,-116.60256195068359,0.03539428114891,-0.01345409173518,9.51889610290527,-0.54338037967682,3.54020762443542,0.31709143519402
550,1931405456,-0.10166580229998,-0.33682882785797,-116.60244750976562,0.02701512724161,-0.01940392889082,9.51042556762695,-0.67242491245270,3.55152916908264,0.30746051669121
551,1931413789,-0.10169763118029,-0.33679932355881,-116.60197448730469,0.01872529089451,-0.02173480205238,9.51228332519531,-0.62734389305115,3.53326630592346,0.36281287670135
552,1931422122,-0.10131797939539,-0.33743134140968,-116.60211181640625,0.00737721100450,-0.02070054598153,9.49484825134277,-0.58198112249374,3.46346759796143,0.28071925044060
553,1931430455,-0.10137977451086,-0.33648458123207,-116.60140991210938,0.00778633821756,-0.01480273902416,9.47295570373535,-0.62929046154022,3.64333009719849,0.37380132079124
554,1931438788,-0.10120875388384,-0.33622705936432,-116.60138702392578,0.02085535600781,-0.03673009574413,9.49709129333496,-0.60657078027725,3.57081675529480,0.29811131954193
555,1931447121,-0.10195681452751,-0.33578264713287,-116.60100555419922,0.01489462237805,-0.01716612093151,9.52545070648193,-0.71335643529892,3.58303451538086,0.33266484737396
556,1931455454,-0.10187516361475,-0.33603182435036,-116.60120391845703,0.00505848182365,-0.02192176319659,9.52102851867676,-0.61763608455658,3.51039290428162,0.26978194713593
557,1931463787,-0.10214086622000,-0.33646079897881,-116.60106658935547,0.02027992717922,-0.01479019224644,9.52572441101074,-0.65531462430954,3.47709417343140,0.31816723942757
558,1931472120,-0.10135181993246,-0.33575987815857,-116.60068511962891,0.04570461437106,-0.02399658598006,9.48886489868164,-0.53111112117767,3.62353014945984,0.34247511625290
559,1931480453,-0.10124190151691,-0.33586248755455,-116.60130310058594,0.03676318004727,-0.02683125250041,9.50391769409180,-0.61189848184586,3.51792287826538,0.22618649899960
560,1931488786,-0.10184667259455,-0.33499360084534,-116.60154724121094,0.02355381287634,-0.03037825226784,9.47904586791992,-0.70021635293961,3.64381670951843,0.26681068539619
561,1931497119,-0.10194239765406,-0.33455267548561,-116.60138702392578,0.02491522207856,-0.04128561168909,9.50327873229980,-0.63466948270798,3.58193302154541,0.31122574210167
562,1931505452,-0.10117907822132,-0.33373817801476,-116.60067749023438,0.02598009631038,-0.02765785716474,9.49808597564697,-0.53485083580017,3.63723373413086,0.38204908370972
563,1931513785,-0.10132023692131,-0.33407473564148,-116.60127258300781,0.02089058235288,-0.03631692379713,9.49570941925049,-0.64176476001740,3.48987579345703,0.23084834218025
564,1931522118,-0.10173053294420,-0.33395424485207,-116.60097503662109,0.02797370217741,-0.03336013108492,9.52793598175049,-0.67465341091156,3.55414199829102,0.33082070946693
565,1931530451,-0.10176539421082,-0.33421164751053,-116.60137176513672,0.01612646877766,-0.04264561831951,9.51607322692871,-0.62934178113937,3.49942994117737,0.25118601322174
566,1931538784,-0.10137636214495,-0.33444342017174,-116.60218811035156,0.01349094975740,-0.01754276268184,9.47056674957275,-0.58016246557236,3.51221132278442,0.19637155532837
567,1931547117,-0.10193740576506,-0.33487084507942,-116.60182189941406,0.01050163898617,-0.03370488807559,9.47857570648193,-0.69002193212509,3.47809338569641,0.34029796719551
568,1931555450,-0.10223269462585,-0.33474919199944,-116.60163116455078,0.02669537067413,-0.04262971505523,9.50203323364258,-0.66271716356277,3.55450057983398,0.31962725520134
569,1931563783,-0.10188487172127,-0.33562928438187,-116.60146331787109,0.01301056519151,-0.02875468879938,9.48452854156494,-0.58205783367157,3.42507147789001,0.30986818671227
570,1931572116,-0.10158826410770,-0.33453944325447,-116.60128784179688,0.01804471202195,-0.02035185880959,9.50779247283936,-0.59084355831146,3.67086553573608,0.31714263558388
571,1931580449,-0.10222138464451,-0.33441984653473,-116.60097503662109,0.03349066153169,-0.04683041572571,9.51873111724854,-0.69967842102051,3.54364013671875,0.33591789007187
572,1931588782,-0.10225550830364,-0.33439928293228,-116.60031890869141,0.02723031863570,-0.02144054882228,9.47767925262451,-0.63123720884323,3.54194927215576,0.37428799271584
573,1931597115,-0.10193033516407,-0.33405539393425,-116.59957122802734,0.04495372623205,-0.04512069001794,9.49090003967285,-0.58408141136169,3.57109808921814,0.39585515856743
574,1931605448,-0.10250873118639,-0.33407920598984,-116.59990692138672,0.02756005711854,-0.03056642971933,9.53533935546875,-0.69632297754288,3.53708243370056,0.25497689843178
575,1931613781,-0.10301277786493,-0.33436378836632,-116.59973144531250,0.03569064661860,-0.02494414709508,9.48894023895264,-0.68456602096558,3.49568986892700,0.31691211462021
576,1931622114,-0.10267291218042,-0.33395931124687,-116.59952545166016,-0.00126156373881,-0.02428396604955,9.53380870819092,-0.58533650636673,3.58797788619995,0.32057496905327
577,1931630447,-0.10241404920816,-0.33409756422043,-116.59966278076172,0.02424488402903,-0.00679997541010,9.53309822082520,-0.59199631214142,3.51372265815735,0.28202557563782
578,1931638780,-0.10214555263519,-0.33361494541168,-116.60066223144531,0.03640082105994,-0.01775156520307,9.50496196746826,-0.59599202871323,3.59753203392029,0.17815980315208
579,1931647113,-0.10229937732220,-0.33412957191467,-116.60054016113281,0.02284976467490,-0.01423341967165,9.50730514526367,-0.64232814311981,3.46810340881348,0.30530887842178
580,1931655446,-0.10290088504553,-0.33443456888199,-116.59947204589844,0.01475791633129,-0.02304593101144,9.53019237518311,-0.69750130176544,3.50332307815552,0.42326244711876
581,1931663779,-0.10302941501141,-0.33344730734825,-116.59951019287109,0.02348894253373,-0.01202065963298,9.51109027862549,-0.63925451040268,3.64801764488220,0.28876206278801
582,1931672112,-0.10370422154665,-0.33305740356445,-116.59885406494141,0.02735242992640,-0.03451301530004,9.49218654632568,-0.70733696222305,3.58672237396240,0.37321215867996
583,1931680445,-0.10356841236353,-0.33325698971748,-116.59866333007812,0.01343293674290,-0.02147159166634,9.49952697753906,-0.60744160413742,3.50565409660339,0.32646623253822
584,1931688778,-0.10267876088619,-0.33343154191971,-116.59798431396484,0.03242487087846,-0.03470158204436,9.51241493225098,-0.52040451765060,3.51879429817200,0.37935966253281
585,1931697111,-0.10284962505102,-0.33300727605820,-116.59829711914062,0.01773702539504,-0.03344451636076,9.50844192504883,-0.64313501119614,3.58120274543762,0.26357045769691
586,1931705444,-0.10237737745047,-0.33304375410080,-116.59835052490234,0.03995023295283,-0.02266139164567,9.48499107360840,-0.57081329822540,3.53490543365479,0.28960737586021
587,1931713777,-0.10239159315825,-0.33274191617966,-116.59779357910156,0.04573016241193,-0.04078837484121,9.48015785217285,-0.62478244304657,3.56643676757812,0.36329951882362
588,1931722110,-0.10175278782845,-0.33260565996170,-116.59746551513672,0.00629523303360,-0.02876814082265,9.51305294036865,-0.54975831508636,3.55619049072266,0.33484211564064
589,1931730443,-0.10213161259890,-0.33182528614998,-116.59783172607422,0.03619242459536,-0.03686245158315,9.49830150604248,-0.67040127515793,3.62399125099182,0.25157019495964
590,1931738776,-0.10202956199646,-0.33217379450798,-116.59741973876953,0.03441341966391,-0.03505444154143,9.52002525329590,-0.61451113224030,3.49750876426697,0.34524148702621
591,1931747109,-0.10230654478073,-0.33174699544907,-116.59680938720703,0.03059466555715,-0.01564657129347,9.51548385620117,-0.65521216392517,3.58111310005188,0.36578404903412
592,1931755442,-0.10284078866243,-0.33116981387138,-116.59593200683594,0.02486501820385,-0.01355779729784,9.53903007507324,-0.69196861982346,3.60885334014893,0.40105485916138
593,1931763775,-0.10359100997448,-0.33122897148132,-116.59575653076172,0.01053113397211,-0.02521838061512,9.50130844116211,-0.71271616220474,3.52238035202026,0.31852582097054
594,1931772108,-0.10494398325682,-0.33097565174103,-116.59639739990234,0.02883643284440,-0.02266146056354,9.49568462371826,-0.79063445329666,3.57007312774658,0.21973168849945
595,1931780441,-0.10497566312551,-0.33170667290688,-116.59641265869141,0.02811687625945,-0.01034601684660,9.50526237487793,-0.62634497880936,3.44243812561035,0.29519125819206
596,1931788774,-0.10497003793716,-0.33226183056831,-116.59668731689453,0.02847378142178,-0.01910931617022,9.50874519348145,-0.62624239921570,3.47297000885010,0.26245623826981
597,1931797107,-0.10451410710812,-0.33304572105408,-116.59690093994141,0.00970073044300,-0.01761692948639,9.50652313232422,-0.56989109516144,3.43506097793579,0.27306053042412
598,1931805440,-0.10484708845615,-0.33312231302261,-116.59650421142578,-0.00072414777242,-0.01874564029276,9.50463962554932,-0.66655921936035,3.53065299987793,0.34268003702164
599,1931813773,-0.10496196895838,-0.33323076367378,-116.59587860107422,0.02495590038598,-0.03318798914552,9.51294231414795,-0.63656502962112,3.51669383049011,0.37116310000420
600,1931822106,-0.10472566634417,-0.33274412155151,-116.59555053710938,0.03520161285996,-0.00565561000258,9.49080753326416,-0.59934741258621,3.59809494018555,0.33520063757896
601,1931830439,-0.10536503791809,-0.33116680383682,-116.59545898437500,0.02729770727456,-0.04725443944335,9.49990463256836,-0.69970393180847,3.71948075294495,0.29262980818748
602,1931838772,-0.10583032667637,-0.33076852560043,-116.59575653076172,0.02432099357247,-0.04390081390738,9.51140403747559,-0.68236315250397,3.58790087699890,0.25805062055588
603,1931847105,-0.10466387867928,-0.32996696233749,-116.59454345703125,0.01955519244075,-0.02827266976237,9.48880100250244,-0.48239284753799,3.62665510177612,0.46181184053421
604,1931855438,-0.10543821007013,-0.33008465170860,-116.59428405761719,0.01016096863896,-0.02153106592596,9.51133728027344,-0.71986252069473,3.52540254592896,0.32475012540817
605,1931863771,-0.10572271049023,-0.32992792129517,-116.59317779541016,0.01509691309184,-0.04645992442966,9.52247428894043,-0.65667223930359,3.54899334907532,0.42556774616241
606,1931872104,-0.10584633797407,-0.32987952232361,-116.59302520751953,0.02303977683187,-0.04023931547999,9.52467727661133,-0.64227700233459,3.54545855522156,0.31363350152969
607,1931880437,-0.10650786012411,-0.32965084910393,-116.59311676025391,0.03644369170070,-0.05107146874070,9.50446224212646,-0.70341801643372,3.55680537223816,0.28438201546669
608,1931888770,-0.10671760886908,-0.32957673072815,-116.59198760986328,0.01919840462506,-0.03136310726404,9.50676155090332,-0.64985877275467,3.54848122596741,0.43110042810440
609,1931897103,-0.10716371238232,-0.32910585403442,-116.59183502197266,0.01529724057764,-0.03391214832664,9.50929164886475,-0.67765021324158,3.58595442771912,0.31094399094582
610,1931905436,-0.10703802108765,-0.32924753427505,-116.59105682373047,0.02408121898770,-0.01503161806613,9.49285793304443,-0.61115562915802,3.52248215675354,0.38901621103287
611,1931913769,-0.10638897866011,-0.32806375622749,-116.59053802490234,0.03524490445852,-0.03315878659487,9.49661445617676,-0.54455864429474,3.67107057571411,0.34921166300774
612,1931922102,-0.10576485097408,-0.32761976122856,-116.59046936035156,0.03200042992830,-0.02156809717417,9.50656318664551,-0.55272954702377,3.59307527542114,0.30290114879608
613,1931930435,-0.10537651181221,-0.32796454429626,-116.59043121337891,0.02280399948359,-0.00437052035704,9.50923728942871,-0.57729363441467,3.48854351043701,0.29829055070877
614,1931938768,-0.10557091981173,-0.32871571183205,-116.58986663818359,0.02601713500917,-0.03137188032269,9.49980926513672,-0.65011489391327,3.44907236099243,0.36212125420570
615,1931947101,-0.10591561347246,-0.32862424850464,-116.58953094482422,0.00536894612014,-0.02872723340988,9.49635028839111,-0.66412580013275,3.54207730293274,0.33041080832481
616,1931955434,-0.10616944730282,-0.32902905344963,-116.58933258056641,0.01866695098579,-0.01608816348016,9.48352146148682,-0.65726131200790,3.49120759963989,0.31821849942207
617,1931963767,-0.10556183010340,-0.32952049374580,-116.58888244628906,0.01315225660801,-0.03346230834723,9.50353336334229,-0.55116713047028,3.47069072723389,0.34431937336922
618,1931972100,-0.10609562695026,-0.32994315028191,-116.58818817138672,0.01622829213738,-0.02209545485675,9.53886222839355,-0.69027799367905,3.48864603042603,0.37879610061646
619,1931980433,-0.10588327050209,-0.32987612485886,-116.58766937255859,0.01543652638793,-0.03795966878533,9.48791980743408,-0.59655553102493,3.53713369369507,0.36696231365204
620,1931988766,-0.10561996698380,-0.32989788055420,-116.58690643310547,0.02127698063850,-0.04017594084144,9.47892093658447,-0.59565901756287,3.53682684898376,0.38489234447479
621,1931997099,-0.10461543500423,-0.32892766594887,-116.58670043945312,0.03561474010348,-0.00809118989855,9.50341796875000,-0.50239753723145,3.64540481567383,0.32664546370506
622,1932005432,-0.10489196330309,-0.32825765013695,-116.58724975585938,0.03151092305779,-0.01737946830690,9.45921325683594,-0.66064220666885,3.62071228027344,0.23025912046432
623,1932013765,-0.10475294291973,-0.32726591825485,-116.58692169189453,0.03406291827559,-0.02848307415843,9.52246475219727,-0.60610955953598,3.64863252639771,0.32767006754875
624,1932022098,-0.10461484640837,-0.32737076282501,-116.58621978759766,0.01408068835735,-0.02302731946111,9.50183200836182,-0.61025917530060,3.52727270126343,0.37994876503944
625,1932030431,-0.10486546158791,-0.32680615782738,-116.58500671386719,0.00092146662064,-0.03070164658129,9.47945404052734,-0.65218961238861,3.59719848632812,0.44698113203049
626,1932038764,-0.10543305426836,-0.32642954587936,-116.58466339111328,0.02548855543137,-0.02240549586713,9.51118373870850,-0.69481170177460,3.58521151542664,0.33686560392380
627,1932047097,-0.10537019371986,-0.32641655206680,-116.58454132080078,0.03373060747981,-0.01933990418911,9.48230838775635,-0.61656028032303,3.53131937980652,0.31921741366386
628,1932055430,-0.10582927614450,-0.32658794522285,-116.58424377441406,0.02469616010785,-0.03977153077722,9.48709774017334,-0.68146681785583,3.51940894126892,0.32902768254280
629,1932063763,-0.10567345470190,-0.32684969902039,-116.58379364013672,0.02240907400846,-0.03184309601784,9.49185562133789,-0.60523879528046,3.49779057502747,0.35049241781235
630,1932072096,-0.10575518757105,-0.32654666900635,-116.58391571044922,0.02666699141264,-0.02291906252503,9.48285770416260,-0.63679552078247,3.57599091529846,0.28161573410034
631,1932080429,-0.10576599091291,-0.32601431012154,-116.58346557617188,0.02463171444833,-0.01122037041932,9.50314426422119,-0.62403959035873,3.59417653083801,0.35620436072350
632,1932088762,-0.10573779791594,-0.32616630196571,-116.58287811279297,0.02290658280253,-0.02246359735727,9.49520301818848,-0.62286138534546,3.52158617973328,0.36668059229851
633,1932097095,-0.10569348186255,-0.32597893476486,-116.58367919921875,0.02373272925615,-0.02926770597696,9.51166915893555,-0.61848133802414,3.55175971984863,0.19168414175510
634,1932105428,-0.10498067736626,-0.32554617524147,-116.58351898193359,0.02472644485533,-0.04907885566354,9.49582576751709,-0.54217648506165,3.59169173240662,0.31519591808319
635,1932113761,-0.10557658970356,-0.32569345831871,-116.58351898193359,0.00549619924277,-0.02231456898153,9.50586318969727,-0.69473487138748,3.51116085052490,0.29416668415070
636,1932122094,-0.10589354485273,-0.32508653402328,-116.58341979980469,0.03278173133731,-0.03420051932335,9.51446723937988,-0.66445875167847,3.61259245872498,0.30897167325020
637,1932130427,-0.10637471079826,-0.32562062144279,-116.58276367187500,0.01655098237097,-0.02552006393671,9.49980735778809,-0.68100559711456,3.46515750885010,0.38007682561874
638,1932138760,-0.10656857490540,-0.32612907886505,-116.58219146728516,0.01637906022370,-0.03628554940224,9.49303340911865,-0.64955145120621,3.47875928878784,0.36355569958687
639,1932147093,-0.10718942433596,-0.32555282115936,-116.58149719238281,0.03727199509740,-0.01568034477532,9.52381038665771,-0.69798779487610,3.59983682632446,0.37508198618889
640,1932155426,-0.10729169100523,-0.32589769363403,-116.58039855957031,0.02813659422100,-0.02001639269292,9.51258563995361,-0.63856285810471,3.49779009819031,0.42720699310303
641,1932163759,-0.10730169713497,-0.32545447349548,-116.58044433593750,0.02341568470001,-0.02869134023786,9.51014614105225,-0.62462866306305,3.58375167846680,0.28609818220139
642,1932172092,-0.10721742361784,-0.32493120431900,-116.57999420166016,0.01103553362191,-0.00484907953069,9.50779819488525,-0.61720049381256,3.60206508636475,0.35023620724678
643,1932180425,-0.10781596601009,-0.32472071051598,-116.58061981201172,0.03209539130330,-0.03201133385301,9.46927547454834,-0.69504237174988,3.55442357063293,0.23028479516506
644,1932188758,-0.10759653151035,-0.32409310340881,-116.58033752441406,0.03964645043015,-0.01439381949604,9.48458671569824,-0.60039758682251,3.61517977714539,0.33030828833580
645,1932197091,-0.10716124624014,-0.32403725385666,-116.58077239990234,0.01699765771627,-0.01873571798205,9.50334930419922,-0.57214522361755,3.53780007362366,0.24206735193729
646,1932205424,-0.10748507082462,-0.32374104857445,-116.57992553710938,0.01275251433253,-0.02726737037301,9.50605773925781,-0.66430509090424,3.57542657852173,0.39626494050026
647,1932213757,-0.10644756257534,-0.32305932044983,-116.57987976074219,0.03465355560184,-0.01552719622850,9.51616382598877,-0.49940070509911,3.61185026168823,0.30182534456253
648,1932222090,-0.10683448612690,-0.32267022132874,-116.58001708984375,0.00539258308709,-0.01430478692055,9.51983451843262,-0.67370545864105,3.58651733398438,0.28169247508049
649,1932230423,-0.10642095655203,-0.32297542691231,-116.57987976074219,0.00780978612602,-0.03157589584589,9.50120735168457,-0.57352840900421,3.49307751655579,0.31888446211815
650,1932238756,-0.10606016963720,-0.32271412014961,-116.57997894287109,0.04326739534736,-0.00429371045902,9.49805450439453,-0.58321058750153,3.57153391838074,0.28399789333344
651,1932247089,-0.10620100796223,-0.32209056615829,-116.58063507080078,0.02881964482367,-0.01705274917185,9.50833034515381,-0.64230251312256,3.60511398315430,0.22293348610401
652,1932255422,-0.10690320283175,-0.32205134630203,-116.58052825927734,0.03337920457125,-0.02795997262001,9.50762844085693,-0.71107685565948,3.54433155059814,0.30874124169350
653,1932263755,-0.10665901750326,-0.32190921902657,-116.58010101318359,0.02605902031064,-0.02176339365542,9.49862289428711,-0.59409660100937,3.54671359062195,0.34695762395859
654,1932272088,-0.10678759217262,-0.32136467099190,-116.58051300048828,0.02293863333762,-0.04342403635383,9.48846340179443,-0.64230251312256,3.60526752471924,0.24726702272892
655,1932280421,-0.10716666281223,-0.32110583782196,-116.58055114746094,0.00326591264457,-0.02278978377581,9.49853897094727,-0.66909497976303,3.56180000305176,0.28545781970024
656,1932288754,-0.10687570273876,-0.32126978039742,-116.58044433593750,0.01830702275038,-0.01370638329536,9.50037384033203,-0.59130471944809,3.52007484436035,0.30820333957672
657,1932297087,-0.10670908540487,-0.32100737094879,-116.57970428466797,0.02246158942580,-0.01677240617573,9.49698448181152,-0.60365074872971,3.56139063835144,0.38461056351662
658,1932305420,-0.10717381536961,-0.32072332501411,-116.57858276367188,0.02645529992878,-0.03214858472347,9.51334476470947,-0.68197894096375,3.57353115081787,0.42846202850342
659,1932313753,-0.10759373754263,-0.32061198353767,-116.57888793945312,0.01407290715724,-0.02220457792282,9.51124477386475,-0.67452532052994,3.54218006134033,0.25105792284012
660,1932322086,-0.10824391245842,-0.31994813680649,-116.57895660400391,0.02868706732988,-0.03701704740524,9.50970935821533,-0.70408409833908,3.61976504325867,0.28704589605331
661,1932330419,-0.10804464668036,-0.32067754864693,-116.57959747314453,0.04277295619249,-0.00467490917072,9.51384925842285,-0.60114055871964,3.44097828865051,0.22861988842487
662,1932338752,-0.10751106590033,-0.32028228044510,-116.57881927490234,0.03431869670749,-0.01868363097310,9.50666522979736,-0.56246298551559,3.58749127388000,0.38817092776299
663,1932347085,-0.10755588859320,-0.32042497396469,-116.57821655273438,0.01623241975904,-0.03032177872956,9.48594474792480,-0.62854772806168,3.51216006278992,0.37994876503944
664,1932355418,-0.10761559754610,-0.32077875733376,-116.57907867431641,0.02403885498643,-0.01240560598671,9.49227142333984,-0.63282531499863,3.49784135818481,0.19245254993439
665,1932363751,-0.10813257098198,-0.32060918211937,-116.57952880859375,0.03528315573931,-0.04448304325342,9.49921798706055,-0.68610292673111,3.54981303215027,0.25341445207596
666,1932372084,-0.10767030715942,-0.32052126526833,-116.57899475097656,0.03431710973382,-0.02172761783004,9.47896194458008,-0.57112056016922,3.55017113685608,0.36224931478500
667,1932380417,-0.10685972124338,-0.32137641310692,-116.57973480224609,0.01729003526270,-0.02990425378084,9.51266956329346,-0.52793502807617,3.42663431167603,0.19931718707085
668,1932388750,-0.10602101683617,-0.32154729962349,-116.57982635498047,0.01118578389287,-0.03713120147586,9.51420593261719,-0.52680796384811,3.51915240287781,0.28494557738304
669,1932397083,-0.10616064071655,-0.32102489471436,-116.57854461669922,0.02623206749558,-0.01807964965701,9.51212882995605,-0.63884460926056,3.59230685234070,0.45763671398163
670,1932405416,-0.10695897042751,-0.32121965289116,-116.57883453369141,0.03139179572463,-0.01802923157811,9.46055507659912,-0.72314113378525,3.51656532287598,0.25940817594528
671,1932413749,-0.10675270855427,-0.32040590047836,-116.57852935791016,0.03509707376361,-0.04202951490879,9.51222038269043,-0.59809237718582,3.62793612480164,0.33110240101814
672,1932422082,-0.10741651058197,-0.32004573941231,-116.57814788818359,0.00752477254719,-0.02807653509080,9.49960613250732,-0.70692723989487,3.58275270462036,0.34116876125336
673,1932430415,-0.10784178227186,-0.31984904408455,-116.57790374755859,0.04279920831323,-0.02682825550437,9.50525569915771,-0.67365443706512,3.55457687377930,0.32769572734833
674,1932438748,-0.10860013961792,-0.31930255889893,-116.57676696777344,0.02570944279432,-0.01490064430982,9.50477504730225,-0.71786445379257,3.60472917556763,0.43279084563255
675,1932447081,-0.10839542001486,-0.31958475708961,-116.57626342773438,0.01558409444988,-0.01623351685703,9.52471446990967,-0.59934747219086,3.49599719047546,0.35848399996758
676,1932455414,-0.10904496163130,-0.32021105289459,-116.57507324218750,0.01814962737262,-0.02523055672646,9.47744846343994,-0.70421224832535,3.46410775184631,0.43883591890335
677,1932463747,-0.10893171280622,-0.32103395462036,-116.57479095458984,0.03342432156205,-0.04222515225410,9.50465393066406,-0.60926026105881,3.43070697784424,0.33199894428253
678,1932472080,-0.10888912528753,-0.32084980607033,-116.57451629638672,0.03153901919723,-0.01988712511957,9.48325347900391,-0.62127327919006,3.56174874305725,0.33023151755333
679,1932480413,-0.10878387838602,-0.32052761316299,-116.57436370849609,0.02929103560746,-0.03008883446455,9.51828670501709,-0.61064338684082,3.56748676300049,0.30797278881073
680,1932488746,-0.10899499803782,-0.32066905498505,-116.57517242431641,0.01132863201201,-0.03160935267806,9.47908496856689,-0.65339362621307,3.52296924591064,0.19975262880325
681,1932497079,-0.10845328867435,-0.32170191407204,-116.57418823242188,0.01018742937595,-0.02523720078170,9.49165248870850,-0.55772435665131,3.40563058853149,0.41222274303436
682,1932505412,-0.10843994468451,-0.32216203212738,-116.57328796386719,0.03086600452662,-0.02188508957624,9.49604129791260,-0.62434703111649,3.48447132110596,0.40259173512459
683,1932513745,-0.10755816847086,-0.32164713740349,-116.57280731201172,0.02901352010667,-0.03565431758761,9.51813030242920,-0.51843214035034,3.59174299240112,0.35366854071617
